{
  "name": "Test-Case 9 CT 2020-01-01",
  "label": "Test-Case 9 Controlled Terminology Package 1 Effective 2020-01-01",
  "description": "Test-Case 9: no differentiation for the submission values possible -> use each as code submission value.",
  "source": "Test source",
  "effectiveDate": "2020-01-01",
  "registrationStatus": "Testing",
  "version": "2020-01-01",
  "_links": {
    "self": {
      "href": "/mdr/ct/packages/cat9-2020-01-01",
      "title": "Test-Case 9 Controlled Terminology Package 2 Effective 2020-01-01",
      "type": "Terminology"
    },
    "priorVersion": {
      "href": "/mdr/ct/packages/cat9-2019-12-01",
      "title": "Test-Case 9 Controlled Terminology Package 1 Effective 2019-12-01",
      "type": "Terminology"
    }
  },
  "codelists": [
    {
      "conceptId": "C1A",
      "extensible": "true",
      "name": "Codelist 1A",
      "submissionValue": "SV",
      "definition": "Definition 1A",
      "preferredTerm": "PT 1A",
      "terms": [
        {
          "conceptId": "T1",
          "submissionValue": "sv-T1-1",
          "definition": "Definition T1",
          "preferredTerm": "PT T1"
        }
      ]
    },
    {
      "conceptId": "C1B",
      "extensible": "true",
      "name": "Codelist 1B",
      "submissionValue": "SV",
      "definition": "Definition 1B",
      "preferredTerm": "PT 1B",
      "terms": [
        {
          "conceptId": "T1",
          "submissionValue": "sv-T1-2",
          "definition": "Definition T1",
          "preferredTerm": "PT T1"
        }
      ]
    }
  ]
}