{
  "name": "Test-Case 2 CT 2020-01-01",
  "label": "Test-Case 2 Controlled Terminology Package 1 Effective 2020-01-01",
  "description": "Test-Case 2: There is a codelist with the name 'Codelist 001 Name' and another codelist with the name 'Codelist 001 Code'. -> standard case; no inconsistency",
  "source": "Test source",
  "effectiveDate": "2020-01-01",
  "registrationStatus": "Final",
  "version": "2020-01-01",
  "_links": {
    "self": {
      "href": "/mdr/ct/packages/cat2-2020-01-01",
      "title": "Test-Case 2 Controlled Terminology Package 2 Effective 2020-01-01",
      "type": "Terminology"
    },
    "priorVersion": {
      "href": "/mdr/ct/packages/cat2-2019-12-01",
      "title": "Test-Case 2 Controlled Terminology Package 1 Effective 2019-12-01",
      "type": "Terminology"
    }
  },
  "codelists": [
    {
      "conceptId": "C001",
      "extensible": "true",
      "name": "Codelist 001 Code",
      "submissionValue": "SMN001",
      "definition": "Definition C001; goes together with C002",
      "preferredTerm": "PT C001",
      "synonyms": [
        "Analysis Purpose"
      ],
      "terms": [
        {
          "conceptId": "T001",
          "submissionValue": "code-SMT001",
          "definition": "Definition T001",
          "preferredTerm": "PT T001",
          "synonyms": [
            "Synonym 1", "Synonym 2"
          ]
        }
      ]
    },
    {
      "conceptId": "C002",
      "extensible": "true",
      "name": "Codelist 001 Name",
      "submissionValue": "SMN002",
      "definition": "Definition C002; goes together with C001",
      "preferredTerm": "PT C002",
      "synonyms": [
        "Analysis Purpose"
      ],
      "terms": [
        {
          "conceptId": "T001",
          "submissionValue": "name-SMT001",
          "definition": "Definition T001",
          "preferredTerm": "PT T001",
          "synonyms": [
            "Synonym 1", "Synonym 2"
          ]
        }
      ]
    },
    {
      "conceptId": "C003",
      "extensible": "true",
      "name": "Codelist 003 Name",
      "submissionValue": "SMN003",
      "definition": "Definition C003; goes together with C004",
      "preferredTerm": "PT C003",
      "synonyms": [],
      "terms": [
        {
          "conceptId": "T003",
          "submissionValue": "name-SMT003",
          "definition": "Definition T003",
          "preferredTerm": "PT T003"
        }
      ]
    },
    {
      "conceptId": "C004",
      "extensible": "true",
      "name": "Codelist 003 Code",
      "submissionValue": "SMN003",
      "definition": "Definition C004; goes together with C003",
      "preferredTerm": "PT C004",
      "synonyms": [],
      "terms": [
        {
          "conceptId": "T003",
          "submissionValue": "code-SMT003",
          "definition": "Definition T003",
          "preferredTerm": "PT T003"
        }
      ]
    }
  ]
}