oid,name,prompt,datatype,length,significant_digits,sas_field_name,sds_var_name,origin,comment,unit_definitions,external_question,codelist_submission_value,terms,translated_texts,aliases
I.STUDYID1,Study ID,StudyID,string,11,0,STUDYID,STUDYID,Protocol Value,,,,,,"Description::en::Study Identifier||osb:CompletionInstructions::en::Although this field is not typically captured on a CRF, it should be displayed clearly on the CRF and/or the EDC system. This field can be included into the database or populated during SDTM-based dataset creation before submission.",
I.STUDYID2,Study ID,StudyID,string,11,0,STUDYID,STUDYID,Protocol Value,,,,,,"Description::en::Study Identifier||osb:CompletionInstructions::en::Although this field is not typically captured on a CRF, it should be displayed clearly on the CRF and/or the EDC system. This field can be included into the database or populated during SDTM-based dataset creation before submission.",
I.STUDYID3,Study ID,StudyID,string,11,0,STUDYID,STUDYID,Protocol Value,,,,,,"Description::en::Study Identifier||osb:CompletionInstructions::en::Although this field is not typically captured on a CRF, it should be displayed clearly on the CRF and/or the EDC system. This field can be included into the database or populated during SDTM-based dataset creation before submission.",
I.RFICDAT,Date informed consent obtained,Date informed consent obtained,date,,0,RFICDAT,DM:RFICDTC|DS:DSSTDTC,Collected Value,,,,,,Description::en::Informed Consent DATE||osb:CompletionInstructions::en::This will be the same information on informed consent used in the SDTM Disposition domain,Sdtm::DS:DSTERM=INFORMED CONSENT OBTAINED
I.RFICTIM,Time informed consent obtained,Time informed consent obtained,time,,0,RFICTIM,DM:RFICDTC|DS:DSSTDTC,Collected Value,,,,,,Description::en::Informed Consent time||osb:CompletionInstructions::en::This will be the same information on informed consent used in the SDTM Disposition domain,Sdtm::DS:DSTERM=INFORMED CONSENT OBTAINED
I.RFICDATLAR1,Date informed consent obtained by Parents/Legally Acceptable Representative (LAR) [de-activated],,date,,0,RFICDAT,DM:RFICDTC|DS:DSSTDTC,Collected Value,,,,,,Description::en::Informed Consent Date (Legal or authorised representative 1)||osb:CompletionInstructions::en::This will be the same information on informed consent used in the SDTM Disposition domain,Sdtm::DS:DSTERM=LEGAL OR AUTHORISED REPRESENTATIVE 1
I.RFICTIMLAR1,Informed Consent TIME obtained by Parents/Legally Acceptable Representative (LAR) [de-activated],,time,,0,RFICTIM,"RFICDTC, DSSTDTC",Collected Value,,,,,,Description::en::Informed Consent Time (Legal or authorised representative 1)||osb:CompletionInstructions::en::This will be the same information on informed consent used in the SDTM Disposition domain,
I.RFICDATLAR2,Date informed consent obtained by Parents/Legally Acceptable Representative (LAR) Only to be completed in countries where Informed Consent from both parents is required [de-activated],,date,,0,RFICDAT,DM:RFICDTC|DS:DSSTDTC,Collected Value,,,,,,Description::en::Informed Consent DATE (Legal or authorised representative 2)||osb:CompletionInstructions::en::This will be the same information on informed consent used in the SDTM Disposition domain,Sdtm::DS:DSTERM=LEGAL OR AUTHORISED REPRESENTATIVE 2
I.RFICTIMLAR2,Informed Consent Time obtained by Parents/Legally Acceptable Representative (LAR) Only to be completed in countries where Informed Consent from both parents is required [de-activated],,time,,0,RFICTIM,"RFICDTC, DSSTDTC",Collected Value,,,,,,Description::en::Informed Consent Time (Legal or authorised representative 2)||osb:CompletionInstructions::en::This will be the same information on informed consent used in the SDTM Disposition domain,
I.BRTHDTCARGUS,Date of birth (only for Argus interface) [hidden],DOB,date,,0,BRTHDAT,BRTHDTC,Collected Value,,,,,,Description::en::Date of birth (only for Argus interface) [hidden],
I.BRTHDTC,Date of birth,DOB,date,,0,BRTHDAT,DM:BRTHDTC,Collected Value,,,,,,"Description::en::Date of birth||osb:CompletionInstructions::en::If collected, please provide the most complete Date of birth",
I.SEX,Sex [read-only],Sex,string,15,0,SEX,DM:SEX,Collected Value,,,,SEX,M||F,Description::en::Sex [read-only],
I.SEXDEA,Sex [de-activated],Sex,string,15,0,SEX,SEX,Protocol Value,,,,SEX,M||F,"Description::en::Sex [de-activated],'Male' or 'Female' to be defaulted",
I.ETHNIC,Ethnicity,Etnicity,string,20,0,ETHNIC,DM:ETHNIC,Collected Value,,,,ETHNIC,HISPANIC OR LATINO||NOT HISPANIC OR LATINO,Description::en::Ethnicity,
I.RACE,Race,Race,string,40,0,RACE,DM:RACE,Collected Value,,,,RACE,AMERICAN INDIAN OR ALASKA NATIVE||ASIAN||BLACK OR AFRICAN AMERICAN||NATIVE HAWAIIAN OR OTHER PACIFIC ISLANDER||WHITE,Description::en::Race,
I.AGE,Age,Age,integer,3,0,AGE,AGE,Collected Value,68,,,,,Description::en::Age||osb:CompletionInstructions::en::The Age could be derived from the Date of Birth,"Sdtm::Note: RACE, When more than one selected, RACE=MULTIPLE and individual responses are RACE1, RACE2, etc. in SUPPDM"
I.RACEOTH,Race other,Race other,string,40,0,RACEOTH,RACEOTH in SUPPDM,Collected Value,,,,,,Description::en::Race other,osb:indentLevel::1
I.SUBJID1,Subject No. [read-only],Subject No,string,10,0,SUBJID,SUBJID,Collected Value,,,,,,Description::en::Subject No.,
I.SUBJID2,Subject No. [read-only],Subject No,string,10,0,SUBJID,SUBJID,Collected Value,,,,,,Description::en::Subject No.,
I.SUBJID3,Subject No. [read-only],Subject No,string,10,0,SUBJID,SUBJID,Collected Value,,,,,,Description::en::Subject No.,
I.PREVSUBJ,Previous Subject No.,Previous Subject No,string,10,0,PREVSUBJ,PREVSUBJ in SUPPDM,Collected Value,,,,,,Description::en::Previous Subject No.,
I.VSDAT,Date of examination,Date of examination,date,,0,VSDAT,VS:VSDTC,Collected Value,,,,,,Description::en::Date of examination [de-activated],
I.SYSBP,Systolic blood pressure,Systolic blood pressure,integer,3,,BP_SYSTOLIC,VS:VSORRES where VSTESTCD=SYSBP|VS:VSORRESU where VSTESTCD=SYSBP,Collected Value,,mmHg,,,,Description::en::Systolic blood pressure||osb:CompletionInstructions::en::Please collect the systolic blood pressure of the subject,
I.DIABP,Diastolic blood pressure,Diastolic blood pressure,integer,3,,BP_DIASTOLIC,VS:VSORRES where VSTESTCD=DIABP|VS:VSORRESU where VSTESTCD=DIABP,Collected Value,,mmHg||Pa,,,,Description::en::Diastolic blood pressure||osb:CompletionInstructions::en::Please collect the diastolic blood pressure of the subject,
I.PULSE,Pulse,Pulse,integer,3,,PULSE,VS:VSORRES/VSORRESU when VSTESTCD=PULSE,Collected Value,,beats/min,,,,Description::en::Pulse,
I.POSITION,Position,Position,string,15,,POSITION,VS:VSPOS where VSTESTCD=SYSBP|VS:VSPOS where VSTESTCD=DIABP,Collected Value,,,,POSITION,SITTING||SUPINE||STANDING,Description::en::Position of the subject||osb:CompletionInstructions::en::Please collect the position of the subject during the exam,
I.LATERALITY,Laterality,Laterality,string,15,,LATERALITY,VS:VSLAT where VSTESTCD=SYSBP|VS:VSLAT where VSTESTCD=DIABP,Collected Value,,,,LAT,RIGHT||LEFT,Description::en::Laterality of the measurement||osb:CompletionInstructions::en::Please collect the laterality of the exam,
I.LOC,Anatomical Location,Anatomical location,string,15,,LOCATION,VS:VSLOC where VSTESTCD=SYSBP|VS:VSLOC where VSTESTCD=DIABP,Collected Value,,,,LOC,ARM,Description::en::Anatomical Location of the measurement||osb:CompletionInstructions::en::Please collect the location of the subject during the exam,
ImportedInstance_Item_1,Acute Kidney Injury - Acute Urinary Tract Infection,Acute Kidney Injury - Acute Urinary Tract Infection,string,20,,,FA:FAORRES where FATESTCD=['AKIAURIN'],Collected Value,FINDCAT:AE REQUIRING ADDITIONAL DATA,,,,,,
ImportedInstance_Item_2,Acute Kidney Injury -  Aminoglycoside(s),Acute Kidney Injury -  Aminoglycoside(s),string,20,,,FA:FAORRES where FATESTCD=['AKIAMINO'],Collected Value,FINDCAT:AE REQUIRING ADDITIONAL DATA,,,,,,
ImportedInstance_Item_3,Acute Kidney Injury - Chronic Urinary Tract Infection,Acute Kidney Injury - Chronic Urinary Tract Infection,string,20,,,FA:FAORRES where FATESTCD=['AKICURIN'],Collected Value,FINDCAT:AE REQUIRING ADDITIONAL DATA,,,,,,
ImportedInstance_Item_4,Acute Kidney Injury - Conditions,Acute Kidney Injury - Conditions,string,20,,,FA:FAORRES where FATESTCD=['AKICONDI'],Collected Value,FINDCAT:AE REQUIRING ADDITIONAL DATA,,,,,,
ImportedInstance_Item_5,Acute Kidney Injury - Conditions Other,Acute Kidney Injury - Conditions Other,string,20,,,FA:FAORRES where FATESTCD=['AKICONOT'],Collected Value,FINDCAT:AE REQUIRING ADDITIONAL DATA,,,,,,
ImportedInstance_Item_6,Acute Kidney Injury - Connective Tissue Disease or Vasculitis,Acute Kidney Injury - Connective Tissue Disease or Vasculitis,string,20,,,FA:FAORRES where FATESTCD=['AKICTDIV'],Collected Value,FINDCAT:AE REQUIRING ADDITIONAL DATA,,,,,,
ImportedInstance_Item_7,Acute Kidney Injury - CT Scan Performed,Acute Kidney Injury - CT Scan Performed,string,20,,,FA:FAORRES where FATESTCD=['AKICTSCA'],Collected Value,FINDCAT:AE REQUIRING ADDITIONAL DATA,,,,,,
ImportedInstance_Item_8,Acute Kidney Injury - Family History of Kidney Disease,Acute Kidney Injury - Family History of Kidney Disease,string,20,,,FA:FAORRES where FATESTCD=['AKIFAMHI'],Collected Value,FINDCAT:AE REQUIRING ADDITIONAL DATA,,,,,,
ImportedInstance_Item_9,Acute Kidney Injury - Hypertension,Acute Kidney Injury - Hypertension,string,20,,,FA:FAORRES where FATESTCD=['AKIHYPER'],Collected Value,FINDCAT:AE REQUIRING ADDITIONAL DATA,,,,,,
ImportedInstance_Item_10,Acute Kidney Injury - Other Imaging Performed,Acute Kidney Injury - Other Imaging Performed,string,20,,,FA:FAORRES where FATESTCD=['AKIIMOTH'],Collected Value,FINDCAT:AE REQUIRING ADDITIONAL DATA,,,,,,
ImportedInstance_Item_11,Acute Kidney Injury - Imaging Performed,Acute Kidney Injury - Imaging Performed,string,20,,,FA:FAORRES where FATESTCD=['AKIIMAGE'],Collected Value,FINDCAT:AE REQUIRING ADDITIONAL DATA,,,,,,
ImportedInstance_Item_12,Acute Kidney Injury - Summary of Imaging Results,Acute Kidney Injury - Summary of Imaging Results,string,20,,,FA:FAORRES where FATESTCD=['AKIHISTO'],Collected Value,FINDCAT:AE REQUIRING ADDITIONAL DATA,,,,,,
ImportedInstance_Item_13,Acute Kidney Injury - Increase Serum Creat >= 0.3 mg/dL Within 48 Hours,Acute Kidney Injury - Increase Serum Creat >= 0.3 mg/dL Within 48 Hours,string,20,,,FA:FAORRES where FATESTCD=['AKISC48'],Collected Value,FINDCAT:AE REQUIRING ADDITIONAL DATA,,,,,,
ImportedInstance_Item_14,specimen,specimen,string,20,,,,Collected Value,FINDCAT:AE REQUIRING ADDITIONAL DATA,,,,,,
ImportedInstance_Item_15,Acute Kidney Injury - Increase Serum Creat >= 1.5 Times Baseline Within 7 Days,Acute Kidney Injury - Increase Serum Creat >= 1.5 Times Baseline Within 7 Days,string,20,,,FA:FAORRES where FATESTCD=['AKISCI7D'],Collected Value,FINDCAT:AE REQUIRING ADDITIONAL DATA,,,,,,
ImportedInstance_Item_16,specimen,specimen,string,20,,,,Collected Value,FINDCAT:AE REQUIRING ADDITIONAL DATA,,,,,,
ImportedInstance_Item_17,Acute Kidney Injury - Initiation of RAS Blockade,Acute Kidney Injury - Initiation of RAS Blockade,string,20,,,FA:FAORRES where FATESTCD=['AKIRASBL'],Collected Value,FINDCAT:AE REQUIRING ADDITIONAL DATA,,,,,,
ImportedInstance_Item_18,Acute Kidney Injury - IV Contrast,Acute Kidney Injury - IV Contrast,string,20,,,FA:FAORRES where FATESTCD=['AKIIVCON'],Collected Value,FINDCAT:AE REQUIRING ADDITIONAL DATA,,,,,,
ImportedInstance_Item_19,Acute Kidney Injury - Summary of Biopsy Histology Results,Acute Kidney Injury - Summary of Biopsy Histology Results,string,20,,,FA:FAORRES where FATESTCD=['AKIBIHIS'],Collected Value,FINDCAT:AE REQUIRING ADDITIONAL DATA,,,,,,
ImportedInstance_Item_20,Acute Kidney Injury - Kidney Biopsy Performed,Acute Kidney Injury - Kidney Biopsy Performed,string,20,,,FA:FAORRES where FATESTCD=['AKIBIOPS'],Collected Value,FINDCAT:AE REQUIRING ADDITIONAL DATA,,,,,,
ImportedInstance_Item_21,Acute Kidney Injury - Nephrotoxic Treatment Received Within Last 3 Months,Acute Kidney Injury - Nephrotoxic Treatment Received Within Last 3 Months,string,20,,,FA:FAORRES where FATESTCD=['AKINDA3M'],Collected Value,FINDCAT:AE REQUIRING ADDITIONAL DATA,,,,,,
ImportedInstance_Item_22,Acute Kidney Injury - Nephrotoxic Treatment Other,Acute Kidney Injury - Nephrotoxic Treatment Other,string,20,,,FA:FAORRES where FATESTCD=['AKINDAOT'],Collected Value,FINDCAT:AE REQUIRING ADDITIONAL DATA,,,,,,
ImportedInstance_Item_23,Acute Kidney Injury - NSAIDs,Acute Kidney Injury - NSAIDs,string,20,,,FA:FAORRES where FATESTCD=['AKINSAID'],Collected Value,FINDCAT:AE REQUIRING ADDITIONAL DATA,,,,,,
ImportedInstance_Item_24,Acute Kidney Injury - Post-Renal Obstructive Disease,Acute Kidney Injury - Post-Renal Obstructive Disease,string,20,,,FA:FAORRES where FATESTCD=['AKIPROBS'],Collected Value,FINDCAT:AE REQUIRING ADDITIONAL DATA,,,,,,
ImportedInstance_Item_25,Acute Kidney Injury - Present Other,Acute Kidney Injury - Present Other,string,20,,,FA:FAORRES where FATESTCD=['AKIPROTH'],Collected Value,FINDCAT:AE REQUIRING ADDITIONAL DATA,,,,,,
ImportedInstance_Item_26,Acute Kidney Injury - Primary Glomerulonephritis,Acute Kidney Injury - Primary Glomerulonephritis,string,20,,,FA:FAORRES where FATESTCD=['AKIPRGLO'],Collected Value,FINDCAT:AE REQUIRING ADDITIONAL DATA,,,,,,
ImportedInstance_Item_27,Acute Kidney Injury - Progression of Chronic Kidney Disease,Acute Kidney Injury - Progression of Chronic Kidney Disease,string,20,,,FA:FAORRES where FATESTCD=['AKIPRCKD'],Collected Value,FINDCAT:AE REQUIRING ADDITIONAL DATA,,,,,,
ImportedInstance_Item_28,Acute Kidney Injury - Recent Streptococcal Infection,Acute Kidney Injury - Recent Streptococcal Infection,string,20,,,FA:FAORRES where FATESTCD=['AKISTREP'],Collected Value,FINDCAT:AE REQUIRING ADDITIONAL DATA,,,,,,
ImportedInstance_Item_29,Acute Kidney Injury - Renal Angio-Imaging Performed,Acute Kidney Injury - Renal Angio-Imaging Performed,string,20,,,FA:FAORRES where FATESTCD=['AKIRANIM'],Collected Value,FINDCAT:AE REQUIRING ADDITIONAL DATA,,,,,,
ImportedInstance_Item_30,Acute Kidney Injury - Renal Artery Stenosis,Acute Kidney Injury - Renal Artery Stenosis,string,20,,,FA:FAORRES where FATESTCD=['AKIREAST'],Collected Value,FINDCAT:AE REQUIRING ADDITIONAL DATA,,,,,,
ImportedInstance_Item_31,Acute Kidney Injury - Renal Vein Thrombosis,Acute Kidney Injury - Renal Vein Thrombosis,string,20,,,FA:FAORRES where FATESTCD=['AKIREVET'],Collected Value,FINDCAT:AE REQUIRING ADDITIONAL DATA,,,,,,
ImportedInstance_Item_32,Acute Kidney Injury - Systemic Autoimmune Disease,Acute Kidney Injury - Systemic Autoimmune Disease,string,20,,,FA:FAORRES where FATESTCD=['AKISYAUD'],Collected Value,FINDCAT:AE REQUIRING ADDITIONAL DATA,,,,,,
ImportedInstance_Item_33,Acute Kidney Injury - Ultrasound Performed,Acute Kidney Injury - Ultrasound Performed,string,20,,,FA:FAORRES where FATESTCD=['AKIULTRA'],Collected Value,FINDCAT:AE REQUIRING ADDITIONAL DATA,,,,,,
ImportedInstance_Item_34,Acute Kidney Injury - Urine Volume < 0.5 mL/kg/h for 6 Hours,Acute Kidney Injury - Urine Volume < 0.5 mL/kg/h for 6 Hours,string,20,,,FA:FAORRES where FATESTCD=['AKIUV6H'],Collected Value,FINDCAT:AE REQUIRING ADDITIONAL DATA,,,,,,
ImportedInstance_Item_35,specimen,specimen,string,20,,,,Collected Value,FINDCAT:AE REQUIRING ADDITIONAL DATA,,,,,,
ImportedInstance_Item_36,Adjudication Outcome,Adjudication Outcome,string,20,,,ZA:ZAORRES where ZATESTCD=['ADJOUT'],Collected Value,FINDCAT:EVENT ADJUDICATION,,,,,,
ImportedInstance_Item_37,"Albumin, AE Requiring Additional Data","Albumin, AE Requiring Additional Data",integer,3,,,LB:LBORRES where LBTESTCD=['ALB'],Collected Value,FINDCAT:AE REQUIRING ADDITIONAL DATA,g/L,,,,,
ImportedInstance_Item_38,Urinary Albumin Excretion,Urinary Albumin Excretion,string,20,,,LB:LBORRES where LBTESTCD=['ALB'],Collected Value,FINDCAT:AE REQUIRING ADDITIONAL DATA,,,,,,
ImportedInstance_Item_39,specimen,specimen,string,20,,,,Collected Value,FINDCAT:AE REQUIRING ADDITIONAL DATA,,,,,,
ImportedInstance_Item_40,Albumin/Creatinine,Albumin/Creatinine,integer,3,,,LB:LBORRES where LBTESTCD=['ALBCREAT'],Collected Value,FINDCAT:AE REQUIRING ADDITIONAL DATA,mg/mmol,,,,,
ImportedInstance_Item_41,Albumin/Creatinine Ratio,Albumin/Creatinine Ratio,integer,3,,,LB:LBORRES where LBTESTCD=['ALBCREAT'],Collected Value,FINDCAT:URINALYSIS,mg/mmol,,,,,
ImportedInstance_Item_42,specimen,specimen,string,20,,,,Collected Value,FINDCAT:URINALYSIS,,,,,,
ImportedInstance_Item_43,Albumin Urine,Albumin Urine,integer,3,,,LB:LBORRES where LBTESTCD=['ALB'],Collected Value,FINDCAT:URINALYSIS,mg/L,,,,,
ImportedInstance_Item_44,specimen,specimen,string,20,,,,Collected Value,FINDCAT:URINALYSIS,,,,,,
ImportedInstance_Item_45,"Albumin, g/dL","Albumin, g/dL",integer,3,,,LB:LBORRES where LBTESTCD=['ALB'],Collected Value,FINDCAT:BIOCHEMISTRY,g/dL,,,,,
ImportedInstance_Item_46,specimen,specimen,string,20,,,,Collected Value,FINDCAT:BIOCHEMISTRY,,,,,,
ImportedInstance_Item_47,"Alkaline Phosphatase, AE Requiring Additional Data","Alkaline Phosphatase, AE Requiring Additional Data",integer,3,,,LB:LBORRES where LBTESTCD=['ALP'],Collected Value,FINDCAT:AE REQUIRING ADDITIONAL DATA,IU/L,,,,,
ImportedInstance_Item_48,"Alanine Aminotransferase, AE Requiring Additional Data","Alanine Aminotransferase, AE Requiring Additional Data",integer,3,,,LB:LBORRES where LBTESTCD=['ALT'],Collected Value,FINDCAT:AE REQUIRING ADDITIONAL DATA,U/L,,,,,
ImportedInstance_Item_49,"Alanine Aminotransferase, Biochemistry","Alanine Aminotransferase, Biochemistry",integer,3,,,LB:LBORRES where LBTESTCD=['ALT'],Collected Value,FINDCAT:BIOCHEMISTRY,U/L,,,,,
ImportedInstance_Item_50,specimen,specimen,string,20,,,,Collected Value,FINDCAT:BIOCHEMISTRY,,,,,,
ImportedInstance_Item_51,"Amylase, AE Requiring Additional Data","Amylase, AE Requiring Additional Data",integer,3,,,LB:LBORRES where LBTESTCD=['AMYLASE'],Collected Value,FINDCAT:AE REQUIRING ADDITIONAL DATA,U/L,,,,,
ImportedInstance_Item_52,"Amylase, Biochemistry","Amylase, Biochemistry",integer,3,,,LB:LBORRES where LBTESTCD=['AMYLASE'],Collected Value,FINDCAT:BIOCHEMISTRY,U/L,,,,,
ImportedInstance_Item_53,specimen,specimen,string,20,,,,Collected Value,FINDCAT:BIOCHEMISTRY,,,,,,
ImportedInstance_Item_54,"Alkaline Phosphatase, Biochemistry","Alkaline Phosphatase, Biochemistry",integer,3,,,LB:LBORRES where LBTESTCD=['ALP'],Collected Value,FINDCAT:BIOCHEMISTRY,U/L,,,,,
ImportedInstance_Item_55,specimen,specimen,string,20,,,,Collected Value,FINDCAT:BIOCHEMISTRY,,,,,,
ImportedInstance_Item_56,"Aspartate Aminotransferase, AE Requiring Additional Data","Aspartate Aminotransferase, AE Requiring Additional Data",integer,3,,,LB:LBORRES where LBTESTCD=['AST'],Collected Value,FINDCAT:AE REQUIRING ADDITIONAL DATA,U/L,,,,,
ImportedInstance_Item_57,"Aspartate Aminotransferase, Biochemistry","Aspartate Aminotransferase, Biochemistry",integer,3,,,LB:LBORRES where LBTESTCD=['AST'],Collected Value,FINDCAT:BIOCHEMISTRY,U/L,,,,,
ImportedInstance_Item_58,specimen,specimen,string,20,,,,Collected Value,FINDCAT:BIOCHEMISTRY,,,,,,
ImportedInstance_Item_59,BG Super GL Analyzer,BG Super GL Analyzer,integer,3,,,LB:LBORRES where LBTESTCD=['GLUC'],Collected Value,FINDCAT:GLUCOSE METABOLISM,mmol/L,,,,,
ImportedInstance_Item_60,"Direct Bilirubin, AE Requiring Additional Data","Direct Bilirubin, AE Requiring Additional Data",integer,3,,,LB:LBORRES where LBTESTCD=['BILDIR'],Collected Value,FINDCAT:AE REQUIRING ADDITIONAL DATA,umol/L,,,,,
ImportedInstance_Item_61,"Bilirubin, AE Requiring Additional Data","Bilirubin, AE Requiring Additional Data",integer,3,,,LB:LBORRES where LBTESTCD=['BILI'],Collected Value,FINDCAT:AE REQUIRING ADDITIONAL DATA,umol/L,,,,,
ImportedInstance_Item_62,"Indirect Bilirubin, AE Requiring Additional Data","Indirect Bilirubin, AE Requiring Additional Data",integer,3,,,LB:LBORRES where LBTESTCD=['BILIND'],Collected Value,FINDCAT:AE REQUIRING ADDITIONAL DATA,umol/L,,,,,
ImportedInstance_Item_63,"Bilirubin, Biochemistry","Bilirubin, Biochemistry",integer,3,,,LB:LBORRES where LBTESTCD=['BILI'],Collected Value,FINDCAT:BIOCHEMISTRY,umol/L,,,,,
ImportedInstance_Item_64,specimen,specimen,string,20,,,,Collected Value,FINDCAT:BIOCHEMISTRY,,,,,,
ImportedInstance_Item_65,Bilirubin Urine,Bilirubin Urine,string,20,,,LB:LBORRES where LBTESTCD=['BILI'],Collected Value,FINDCAT:URINALYSIS,,,,,,
ImportedInstance_Item_66,specimen,specimen,string,20,,,,Collected Value,FINDCAT:URINALYSIS,,,,,,
ImportedInstance_Item_67,Have All Blood Samples Been Taken,Have All Blood Samples Been Taken,string,20,,,LB:LBORRES where LBTESTCD=['LBALL'],Collected Value,FINDCAT:COLLECTION OF SAMPLES,,,,,,
ImportedInstance_Item_68,specimen,specimen,string,20,,,,Collected Value,FINDCAT:COLLECTION OF SAMPLES,,,,,,
ImportedInstance_Item_69,Urea Nitrogen,Urea Nitrogen,integer,3,,,LB:LBORRES where LBTESTCD=['UREAN'],Collected Value,FINDCAT:AE REQUIRING ADDITIONAL DATA,mg/dL,,,,,
ImportedInstance_Item_70,specimen,specimen,string,20,,,,Collected Value,FINDCAT:AE REQUIRING ADDITIONAL DATA,,,,,,
ImportedInstance_Item_71,Body Temperature,Body Temperature,integer,3,,,VS:VSORRES where VSTESTCD=['TEMP'],Collected Value,FINDCAT:VITAL SIGNS,C,,,,,
ImportedInstance_Item_72,location,location,string,20,,,VS:VSLOC,Collected Value,FINDCAT:VITAL SIGNS,,,LOC,AXILLARY||RECTAL||SKIN||ORAL CAVITY||EAR,,
ImportedInstance_Item_73,position,position,string,20,,,VS:VSPOSITION,Collected Value,FINDCAT:VITAL SIGNS,,,POSITION,SUPINE,,
ImportedInstance_Item_74,Body Weight,Body Weight,integer,3,,,VS:VSORRES where VSTESTCD=['WEIGHT'],Collected Value,FINDCAT:BODY MEASUREMENT,kg,,,,,
ImportedInstance_Item_75,Diastolic Blood Pressure,Diastolic Blood Pressure,integer,3,,,VS:VSORRES/ORRESU where VSTESTCD=['DIABP'],Collected Value,FINDCAT:VITAL SIGNS,mmHg,,,,,
ImportedInstance_Item_76,laterality,laterality,string,20,,,VS:VSLAT,Collected Value,FINDCAT:VITAL SIGNS,,,LAT,LEFT||RIGHT,,
ImportedInstance_Item_77,location,location,string,20,,,VS:VSLOC,Collected Value,FINDCAT:VITAL SIGNS,,,LOC,ARM,,
ImportedInstance_Item_78,position,position,string,20,,,VS:VSPOSITION,Collected Value,FINDCAT:VITAL SIGNS,,,POSITION,SUPINE||SITTING,,
ImportedInstance_Item_79,Systolic Blood Pressure,Systolic Blood Pressure,integer,3,,,VS:VSORRES/ORRESU where VSTESTCD=['SYSBP'],Collected Value,FINDCAT:VITAL SIGNS,mmHg,,,,,
ImportedInstance_Item_80,laterality,laterality,string,20,,,VS:VSLAT,Collected Value,FINDCAT:VITAL SIGNS,,,LAT,LEFT||RIGHT,,
ImportedInstance_Item_81,location,location,string,20,,,VS:VSLOC,Collected Value,FINDCAT:VITAL SIGNS,,,LOC,ARM,,
ImportedInstance_Item_82,position,position,string,20,,,VS:VSPOSITION,Collected Value,FINDCAT:VITAL SIGNS,,,POSITION,SUPINE||SITTING,,
ImportedInstance_Item_83,Cause of Death,Cause of Death,string,20,,,ZA:ZAORRES where ZATESTCD=['CAUSEDEA'],Collected Value,FINDCAT:EVENT ADJUDICATION,,,,,,
ImportedInstance_Item_84,CGM - Sensor Value,CGM - Sensor Value,integer,3,,,LB:LBORRES where LBTESTCD=['GLUC'],Collected Value,FINDCAT:CGM,mmol/L,,,,,
ImportedInstance_Item_85,Imaging Findings Characteristic of Pancreatitis,Imaging Findings Characteristic of Pancreatitis,string,20,,,ZA:ZAORRES where ZATESTCD=['IMAGFIND'],Collected Value,FINDCAT:EVENT ADJUDICATION,,,,,,
ImportedInstance_Item_86,Is the Subject of Childbearing Potential,Is the Subject of Childbearing Potential,string,20,,,RP:RPORRES where RPTESTCD=['CHILDPOT'],Collected Value,,,,,,,
ImportedInstance_Item_87,Classification of Myocardial Infarction,Classification of Myocardial Infarction,string,20,,,ZA:ZAORRES where ZATESTCD=['CLASSMYF'],Collected Value,FINDCAT:EVENT ADJUDICATION,,,,,,
ImportedInstance_Item_88,Creatinine Clearance,Creatinine Clearance,integer,3,,,LB:LBORRES where LBTESTCD=['CREATCLR'],Collected Value,FINDCAT:AE REQUIRING ADDITIONAL DATA,mL/min,,,,,
ImportedInstance_Item_89,"Creatinine, Biochemistry","Creatinine, Biochemistry",integer,3,,,LB:LBORRES where LBTESTCD=['CREAT'],Collected Value,FINDCAT:BIOCHEMISTRY,umol/L,,,,,
ImportedInstance_Item_90,specimen,specimen,string,20,,,,Collected Value,FINDCAT:BIOCHEMISTRY,,,,,,
ImportedInstance_Item_91,C-Reactive Protein,C-Reactive Protein,integer,3,,,LB:LBORRES where LBTESTCD=['CRP'],Collected Value,FINDCAT:AE REQUIRING ADDITIONAL DATA,mg/L,,,,,
ImportedInstance_Item_92,High Sensitive C-Reactive Protein,High Sensitive C-Reactive Protein,integer,3,,,LB:LBORRES where LBTESTCD=['CRP'],Collected Value,FINDCAT:BIOCHEMISTRY,mg/L,,,,,
ImportedInstance_Item_93,specimen,specimen,string,20,,,,Collected Value,FINDCAT:BIOCHEMISTRY,,,,,,
ImportedInstance_Item_94,Cystatin C,Cystatin C,integer,3,,,LB:LBORRES where LBTESTCD=['CYSTATC'],Collected Value,FINDCAT:AE REQUIRING ADDITIONAL DATA,ug/L,,,,,
ImportedInstance_Item_95,C-Peptide,C-Peptide,integer,3,,,LB:LBORRES where LBTESTCD=['CPEPTIDE'],Collected Value,FINDCAT:GLUCOSE METABOLISM,nmol/L,,,,,
ImportedInstance_Item_96,specimen,specimen,string,20,,,,Collected Value,FINDCAT:GLUCOSE METABOLISM,,,,,,
ImportedInstance_Item_97,C-Reactive Protein Plasma,C-Reactive Protein Plasma,integer,3,,,LB:LBORRES where LBTESTCD=['CRP'],Collected Value,FINDCAT:BIOCHEMISTRY,mg/L,,,,,
ImportedInstance_Item_98,specimen,specimen,string,20,,,,Collected Value,FINDCAT:BIOCHEMISTRY,,,,,,
ImportedInstance_Item_99,Location of Death Occurrence,Location of Death Occurrence,string,20,,,ZA:ZAORRES where ZATESTCD=['DEATHLOC'],Collected Value,FINDCAT:EVENT ADJUDICATION,,,,,,
ImportedInstance_Item_100,eGFR Using CKD-EPI Formula,eGFR Using CKD-EPI Formula,integer,3,,,LB:LBORRES where LBTESTCD=['GFRE'],Collected Value,FINDCAT:BIOCHEMISTRY,mL/min/1.73m2,,,,,
ImportedInstance_Item_101,specimen,specimen,string,20,,,,Collected Value,FINDCAT:BIOCHEMISTRY,,,,,,
ImportedInstance_Item_102,"Elevated Blood Levels of Pancreatic Enzymes (Lipase, Amylase) >=3xUNL","Elevated Blood Levels of Pancreatic Enzymes (Lipase, Amylase) >=3xUNL",string,20,,,ZA:ZAORRES where ZATESTCD=['LEVELENZ'],Collected Value,FINDCAT:EVENT ADJUDICATION,,,,,,
ImportedInstance_Item_103,Eosinophils Blood,Eosinophils Blood,integer,3,,,LB:LBORRES where LBTESTCD=['EOS'],Collected Value,FINDCAT:HAEMATOLOGY,10^9/L,,,,,
ImportedInstance_Item_104,specimen,specimen,string,20,,,,Collected Value,FINDCAT:HAEMATOLOGY,,,,,,
ImportedInstance_Item_105,Eosinophils Cell Count (AE),Eosinophils Cell Count (AE),integer,3,,,LB:LBORRES where LBTESTCD=['EOS'],Collected Value,FINDCAT:AE REQUIRING ADDITIONAL DATA,10^9/L,,,,,
ImportedInstance_Item_106,Erythrocytes,Erythrocytes,integer,3,,,LB:LBORRES where LBTESTCD=['RBC'],Collected Value,FINDCAT:HAEMATOLOGY,10^12/L,,,,,
ImportedInstance_Item_107,specimen,specimen,string,20,,,,Collected Value,FINDCAT:HAEMATOLOGY,,,,,,
ImportedInstance_Item_108,Estimated GFR,Estimated GFR,integer,3,,,LB:LBORRES where LBTESTCD=['GFRE'],Collected Value,FINDCAT:AE REQUIRING ADDITIONAL DATA,mL/min,,,,,
ImportedInstance_Item_109,Ethnicity,Ethnicity,string,20,,,,Collected Value,FINDCAT:DEMOGRAPHY,,,,,,
ImportedInstance_Item_110,Evaluated Event Onset Date,Evaluated Event Onset Date,string,20,,,ZA:ZAORRES where ZATESTCD=['EVALDATE'],Collected Value,FINDCAT:EVENT ADJUDICATION,,,,,,
ImportedInstance_Item_111,Event Confirmation,Event Confirmation,string,20,,,ZA:ZAORRES where ZATESTCD=['EVENCONF'],Collected Value,FINDCAT:EVENT ADJUDICATION,,,,,,
ImportedInstance_Item_112,Fasting Plasma Glucose,Fasting Plasma Glucose,integer,3,,,LB:LBORRES where LBTESTCD=['GLUC'],Collected Value,FINDCAT:GLUCOSE METABOLISM,mmol/L,,,,,
ImportedInstance_Item_113,specimen,specimen,string,20,,,,Collected Value,FINDCAT:GLUCOSE METABOLISM,,,,,,
ImportedInstance_Item_114,Fasting Serum Glucose,Fasting Serum Glucose,integer,3,,,LB:LBORRES where LBTESTCD=['GLUC'],Collected Value,FINDCAT:GLUCOSE METABOLISM,mmol/L,,,,,
ImportedInstance_Item_115,specimen,specimen,string,20,,,,Collected Value,FINDCAT:GLUCOSE METABOLISM,,,,,,
ImportedInstance_Item_116,Insulin Serum-Fasting,Insulin Serum-Fasting,integer,3,,,LB:LBORRES where LBTESTCD=['INSULIN'],Collected Value,FINDCAT:GLUCOSE METABOLISM,pmol/L,,,,,
ImportedInstance_Item_117,specimen,specimen,string,20,,,,Collected Value,FINDCAT:GLUCOSE METABOLISM,,,,,,
ImportedInstance_Item_118,Gamma Glutamyl Transferase,Gamma Glutamyl Transferase,integer,3,,,LB:LBORRES where LBTESTCD=['GGT'],Collected Value,FINDCAT:AE REQUIRING ADDITIONAL DATA,mg/L,,,,,
ImportedInstance_Item_119,GGT,GGT,integer,3,,,LB:LBORRES where LBTESTCD=['GGT'],Collected Value,FINDCAT:BIOCHEMISTRY,U/L,,,,,
ImportedInstance_Item_120,specimen,specimen,string,20,,,,Collected Value,FINDCAT:BIOCHEMISTRY,,,,,,
ImportedInstance_Item_121,Plasma Glucagon,Plasma Glucagon,integer,3,,,LB:LBORRES where LBTESTCD=['GLUCAGON'],Collected Value,FINDCAT:GLUCOSE METABOLISM,pg/mL,,,,,
ImportedInstance_Item_122,specimen,specimen,string,20,,,,Collected Value,FINDCAT:GLUCOSE METABOLISM,,,,,,
ImportedInstance_Item_123,Serum Glucagon,Serum Glucagon,integer,3,,,LB:LBORRES where LBTESTCD=['GLUCAGON'],Collected Value,FINDCAT:GLUCOSE METABOLISM,pg/mL,,,,,
ImportedInstance_Item_124,specimen,specimen,string,20,,,,Collected Value,FINDCAT:GLUCOSE METABOLISM,,,,,,
ImportedInstance_Item_125,Glucose,Glucose,integer,3,,,LB:LBORRES where LBTESTCD=['GLUC'],Collected Value,FINDCAT:AE REQUIRING ADDITIONAL DATA,mmol/L,,,,,
ImportedInstance_Item_126,Blood Glucose,Blood Glucose,integer,3,,,LB:LBORRES where LBTESTCD=['GLUC'],Collected Value,FINDCAT:GLUCOSE METABOLISM,mmol/L,,,,,
ImportedInstance_Item_127,specimen,specimen,string,20,,,,Collected Value,FINDCAT:GLUCOSE METABOLISM,,,,,,
ImportedInstance_Item_128,Glucose Urine,Glucose Urine,string,20,,,LB:LBORRES where LBTESTCD=['GLUC'],Collected Value,FINDCAT:URINALYSIS,,,,,,
ImportedInstance_Item_129,specimen,specimen,string,20,,,,Collected Value,FINDCAT:URINALYSIS,,,,,,
ImportedInstance_Item_130,"Glucose, Plasma, Glucose Metabolism","Glucose, Plasma, Glucose Metabolism",integer,3,,,LB:LBORRES where LBTESTCD=['GLUC'],Collected Value,FINDCAT:GLUCOSE METABOLISM,mmol/L,,,,,
ImportedInstance_Item_131,specimen,specimen,string,20,,,,Collected Value,FINDCAT:GLUCOSE METABOLISM,,,,,,
ImportedInstance_Item_132,"Glucose, Serum","Glucose, Serum",integer,3,,,LB:LBORRES where LBTESTCD=['GLUC'],Collected Value,FINDCAT:GLUCOSE METABOLISM,mmol/L,,,,,
ImportedInstance_Item_133,specimen,specimen,string,20,,,,Collected Value,FINDCAT:GLUCOSE METABOLISM,,,,,,
ImportedInstance_Item_134,Glucose Dipstick,Glucose Dipstick,string,20,,,LB:LBORRES where LBTESTCD=['GLUC'],Collected Value,FINDCAT:URINALYSIS,,,,,,
ImportedInstance_Item_135,specimen,specimen,string,20,,,,Collected Value,FINDCAT:URINALYSIS,,,,,,
ImportedInstance_Item_136,HbA1c,HbA1c,integer,3,,,LB:LBORRES where LBTESTCD=['HBA1C'],Collected Value,FINDCAT:GLUCOSE METABOLISM,%,,,,,
ImportedInstance_Item_137,specimen,specimen,string,20,,,,Collected Value,FINDCAT:GLUCOSE METABOLISM,,,,,,
ImportedInstance_Item_138,Heart Failure Classification,Heart Failure Classification,string,20,,,ZA:ZAORRES where ZATESTCD=['HTFAILCL'],Collected Value,FINDCAT:EVENT ADJUDICATION,,,,,,
ImportedInstance_Item_139,Height,Height,integer,3,,,VS:VSORRES where VSTESTCD=['HEIGHT'],Collected Value,FINDCAT:BODY MEASUREMENT,m,,,,,
ImportedInstance_Item_140,Hip Circumference,Hip Circumference,integer,3,,,VS:VSORRES where VSTESTCD=['HIPCIR'],Collected Value,FINDCAT:BODY MEASUREMENT,cm,,,,,
ImportedInstance_Item_141,Did the Subject Feel Better After the Treatment,Did the Subject Feel Better After the Treatment,string,20,,,ZA:ZAORRES where ZATESTCD=['FEELBETT'],Collected Value,FINDCAT:EVENT ADJUDICATION,,,,,,
ImportedInstance_Item_142,International Normalized Ratio,International Normalized Ratio,integer,3,,,LB:LBORRES where LBTESTCD=['INR'],Collected Value,FINDCAT:AE REQUIRING ADDITIONAL DATA,ratio,,,,,
ImportedInstance_Item_143,INR,INR,integer,3,,,LB:LBORRES where LBTESTCD=['INR'],Collected Value,FINDCAT:COAGULATION PARAMETER,ratio,,,,,
ImportedInstance_Item_144,specimen,specimen,string,20,,,,Collected Value,FINDCAT:COAGULATION PARAMETER,,,,,,
ImportedInstance_Item_145,Human Insulin,Human Insulin,integer,3,,,LB:LBORRES where LBTESTCD=['INSULIN'],Collected Value,FINDCAT:GLUCOSE METABOLISM,pmol/L,,,,,
ImportedInstance_Item_146,specimen,specimen,string,20,,,,Collected Value,FINDCAT:GLUCOSE METABOLISM,,,,,,
ImportedInstance_Item_147,Insulin Serum,Insulin Serum,integer,3,,,LB:LBORRES where LBTESTCD=['INSULIN'],Collected Value,FINDCAT:GLUCOSE METABOLISM,pmol/L,,,,,
ImportedInstance_Item_148,specimen,specimen,string,20,,,,Collected Value,FINDCAT:GLUCOSE METABOLISM,,,,,,
ImportedInstance_Item_149,"Lipase, AE Requiring Additional Data","Lipase, AE Requiring Additional Data",integer,3,,,LB:LBORRES where LBTESTCD=['LIPASET'],Collected Value,FINDCAT:AE REQUIRING ADDITIONAL DATA,U/L,,,,,
ImportedInstance_Item_150,"Lipase, Biochemistry","Lipase, Biochemistry",integer,3,,,LB:LBORRES where LBTESTCD=['LIPASET'],Collected Value,FINDCAT:BIOCHEMISTRY,U/L,,,,,
ImportedInstance_Item_151,specimen,specimen,string,20,,,,Collected Value,FINDCAT:BIOCHEMISTRY,,,,,,
ImportedInstance_Item_152,Glomerular Filtration Rate,Glomerular Filtration Rate,integer,3,,,LB:LBORRES where LBTESTCD=['GFR'],Collected Value,FINDCAT:AE REQUIRING ADDITIONAL DATA,mL/min,,,,,
ImportedInstance_Item_153,Method of Coronary Revascularisation,Method of Coronary Revascularisation,string,20,,,ZA:ZAORRES where ZATESTCD=['METHOCRV'],Collected Value,FINDCAT:EVENT ADJUDICATION,,,,,,
ImportedInstance_Item_154,"Nitrite, AE Requiring Additional Data","Nitrite, AE Requiring Additional Data",string,20,,,LB:LBORRES where LBTESTCD=['NITRITE'],Collected Value,FINDCAT:AE REQUIRING ADDITIONAL DATA,,,,,,
ImportedInstance_Item_155,Urine Nitrite,Urine Nitrite,string,20,,,LB:LBORRES where LBTESTCD=['NITRITE'],Collected Value,FINDCAT:URINALYSIS,,,,,,
ImportedInstance_Item_156,specimen,specimen,string,20,,,,Collected Value,FINDCAT:URINALYSIS,,,,,,
ImportedInstance_Item_157,"Nitrite, Urinalysis","Nitrite, Urinalysis",string,20,,,LB:LBORRES where LBTESTCD=['NITRITE'],Collected Value,FINDCAT:URINALYSIS,,,,,,
ImportedInstance_Item_158,specimen,specimen,string,20,,,,Collected Value,FINDCAT:URINALYSIS,,,,,,
ImportedInstance_Item_159,Other Adjudicated Event Type,Other Adjudicated Event Type,string,20,,,ZA:ZAORRES where ZATESTCD=['OTADEVTY'],Collected Value,FINDCAT:EVENT ADJUDICATION,,,,,,
ImportedInstance_Item_160,Oxygen Saturation,Oxygen Saturation,integer,3,,,VS:VSORRES where VSTESTCD=['OXYSAT'],Collected Value,FINDCAT:VITAL SIGNS,%,,,,,
ImportedInstance_Item_161,Pain Rating - How Would You Rate the Pain at Its Worst in Your Target Knee,Pain Rating - How Would You Rate the Pain at Its Worst in Your Target Knee,string,20,,,QS:QSORRES where QSTESTCD=['PAIN0102'],Collected Value,FINDCAT:PAIN RATING,,,,,,
ImportedInstance_Item_162,Significant Upper Abdominal Pain,Significant Upper Abdominal Pain,string,20,,,FA:FAORRES where FATESTCD=['PANABPN'],Collected Value,FINDCAT:AE REQUIRING ADDITIONAL DATA,,,,,,
ImportedInstance_Item_163,Any Acute Complications,Any Acute Complications,string,20,,,FA:FAORRES where FATESTCD=['PANACOMP'],Collected Value,FINDCAT:AE REQUIRING ADDITIONAL DATA,,,,,,
ImportedInstance_Item_164,Other Acute Pancreatitis Symptom,Other Acute Pancreatitis Symptom,string,20,,,FA:FAORRES where FATESTCD=['PANCONOT'],Collected Value,FINDCAT:AE REQUIRING ADDITIONAL DATA,,,,,,
ImportedInstance_Item_165,Risk Factor - Alcohol Consumption,Risk Factor - Alcohol Consumption,string,20,,,FA:FAORRES where FATESTCD=['PANALCON'],Collected Value,FINDCAT:AE REQUIRING ADDITIONAL DATA,,,,,,
ImportedInstance_Item_166,Atrophy of the Pancreas,Atrophy of the Pancreas,string,20,,,FA:FAORRES where FATESTCD=['PANATROP'],Collected Value,FINDCAT:AE REQUIRING ADDITIONAL DATA,,,,,,
ImportedInstance_Item_167,Calcification of Pancreas,Calcification of Pancreas,string,20,,,FA:FAORRES where FATESTCD=['PANCALCI'],Collected Value,FINDCAT:AE REQUIRING ADDITIONAL DATA,,,,,,
ImportedInstance_Item_168,Other Chronic Pancreatitis Symptom,Other Chronic Pancreatitis Symptom,string,20,,,FA:FAORRES where FATESTCD=['PANCHROT'],Collected Value,FINDCAT:AE REQUIRING ADDITIONAL DATA,,,,,,
ImportedInstance_Item_169,Imaging Method - CT Scan,Imaging Method - CT Scan,string,20,,,FA:FAORRES where FATESTCD=['PANCT'],Collected Value,FINDCAT:AE REQUIRING ADDITIONAL DATA,,,,,,
ImportedInstance_Item_170,Dilatation of Pancreatic Ducts,Dilatation of Pancreatic Ducts,string,20,,,FA:FAORRES where FATESTCD=['PANDILPD'],Collected Value,FINDCAT:AE REQUIRING ADDITIONAL DATA,,,,,,
ImportedInstance_Item_171,Dilated Common Bile Duct,Dilated Common Bile Duct,string,20,,,FA:FAORRES where FATESTCD=['PANDILDU'],Collected Value,FINDCAT:AE REQUIRING ADDITIONAL DATA,,,,,,
ImportedInstance_Item_172,Risk Factor -Family Hist of Pancreatitis,Risk Factor -Family Hist of Pancreatitis,string,20,,,FA:FAORRES where FATESTCD=['PANFHISP'],Collected Value,FINDCAT:AE REQUIRING ADDITIONAL DATA,,,,,,
ImportedInstance_Item_173,Fever as Symptom,Fever as Symptom,string,20,,,FA:FAORRES where FATESTCD=['PANFEVER'],Collected Value,FINDCAT:AE REQUIRING ADDITIONAL DATA,,,,,,
ImportedInstance_Item_174,Acute Complications - GI Haemorrhage,Acute Complications - GI Haemorrhage,string,20,,,FA:FAORRES where FATESTCD=['PANGIHEM'],Collected Value,FINDCAT:AE REQUIRING ADDITIONAL DATA,,,,,,
ImportedInstance_Item_175,Risk Factor - History of Gallstones,Risk Factor - History of Gallstones,string,20,,,FA:FAORRES where FATESTCD=['PANHGALS'],Collected Value,FINDCAT:AE REQUIRING ADDITIONAL DATA,,,,,,
ImportedInstance_Item_176,Risk Factor - Hyper-Calcaemia,Risk Factor - Hyper-Calcaemia,string,20,,,FA:FAORRES where FATESTCD=['PANHYCAL'],Collected Value,FINDCAT:AE REQUIRING ADDITIONAL DATA,,,,,,
ImportedInstance_Item_177,Risk Factor - Hyper-Triglyceridemia,Risk Factor - Hyper-Triglyceridemia,string,20,,,FA:FAORRES where FATESTCD=['PANHTGLY'],Collected Value,FINDCAT:AE REQUIRING ADDITIONAL DATA,,,,,,
ImportedInstance_Item_178,Imaging Consistent with Acute Pan,Imaging Consistent with Acute Pan,string,20,,,FA:FAORRES where FATESTCD=['PANIACON'],Collected Value,FINDCAT:AE REQUIRING ADDITIONAL DATA,,,,,,
ImportedInstance_Item_179,Imaging Consistent with Chronic Pan,Imaging Consistent with Chronic Pan,string,20,,,FA:FAORRES where FATESTCD=['PANICCON'],Collected Value,FINDCAT:AE REQUIRING ADDITIONAL DATA,,,,,,
ImportedInstance_Item_180,Imaging Consistent with Gallstone,Imaging Consistent with Gallstone,string,20,,,FA:FAORRES where FATESTCD=['PANIGCON'],Collected Value,FINDCAT:AE REQUIRING ADDITIONAL DATA,,,,,,
ImportedInstance_Item_181,Was Imaging Performed,Was Imaging Performed,string,20,,,FA:FAORRES where FATESTCD=['PANIMAPE'],Collected Value,FINDCAT:AE REQUIRING ADDITIONAL DATA,,,,,,
ImportedInstance_Item_182,Imaging Method - MRI,Imaging Method - MRI,string,20,,,FA:FAORRES where FATESTCD=['PANMRI'],Collected Value,FINDCAT:AE REQUIRING ADDITIONAL DATA,,,,,,
ImportedInstance_Item_183,Nausea as Symptom,Nausea as Symptom,string,20,,,FA:FAORRES where FATESTCD=['PANNASEA'],Collected Value,FINDCAT:AE REQUIRING ADDITIONAL DATA,,,,,,
ImportedInstance_Item_184,Necrotising Pancreatitis,Necrotising Pancreatitis,string,20,,,FA:FAORRES where FATESTCD=['PANNECRP'],Collected Value,FINDCAT:AE REQUIRING ADDITIONAL DATA,,,,,,
ImportedInstance_Item_185,Obstructive Gall-Stone,Obstructive Gall-Stone,string,20,,,FA:FAORRES where FATESTCD=['PANOBSTR'],Collected Value,FINDCAT:AE REQUIRING ADDITIONAL DATA,,,,,,
ImportedInstance_Item_186,Oedematous or Interstitial Pancreatitis,Oedematous or Interstitial Pancreatitis,string,20,,,FA:FAORRES where FATESTCD=['PANOEDIP'],Collected Value,FINDCAT:AE REQUIRING ADDITIONAL DATA,,,,,,
ImportedInstance_Item_187,Imaging Method - Other,Imaging Method - Other,string,20,,,FA:FAORRES where FATESTCD=['PANIMAOT'],Collected Value,FINDCAT:AE REQUIRING ADDITIONAL DATA,,,,,,
ImportedInstance_Item_188,Acute Complications - Other,Acute Complications - Other,string,20,,,FA:FAORRES where FATESTCD=['PANACOOT'],Collected Value,FINDCAT:AE REQUIRING ADDITIONAL DATA,,,,,,
ImportedInstance_Item_189,Risk Factor - Other,Risk Factor - Other,string,20,,,FA:FAORRES where FATESTCD=['PANRISOT'],Collected Value,FINDCAT:AE REQUIRING ADDITIONAL DATA,,,,,,
ImportedInstance_Item_190,Other Symptom,Other Symptom,string,20,,,FA:FAORRES where FATESTCD=['PANSYOT'],Collected Value,FINDCAT:AE REQUIRING ADDITIONAL DATA,,,,,,
ImportedInstance_Item_191,Peri-Pancreatic Fluid,Peri-Pancreatic Fluid,string,20,,,FA:FAORRES where FATESTCD=['PANPERPF'],Collected Value,FINDCAT:AE REQUIRING ADDITIONAL DATA,,,,,,
ImportedInstance_Item_192,Pseudocysts,Pseudocysts,string,20,,,FA:FAORRES where FATESTCD=['PANPSEUD'],Collected Value,FINDCAT:AE REQUIRING ADDITIONAL DATA,,,,,,
ImportedInstance_Item_193,Acute Complications - Renal Failure,Acute Complications - Renal Failure,string,20,,,FA:FAORRES where FATESTCD=['PANRENFD'],Collected Value,FINDCAT:AE REQUIRING ADDITIONAL DATA,,,,,,
ImportedInstance_Item_194,Acute Complications -Respiratory Failure,Acute Complications -Respiratory Failure,string,20,,,FA:FAORRES where FATESTCD=['PANRESFV'],Collected Value,FINDCAT:AE REQUIRING ADDITIONAL DATA,,,,,,
ImportedInstance_Item_195,Pancreatitis Risk Factors,Pancreatitis Risk Factors,string,20,,,FA:FAORRES where FATESTCD=['PANRRFAC'],Collected Value,FINDCAT:AE REQUIRING ADDITIONAL DATA,,,,,,
ImportedInstance_Item_196,Acute Complications - Sepsis,Acute Complications - Sepsis,string,20,,,FA:FAORRES where FATESTCD=['PANSEPSI'],Collected Value,FINDCAT:AE REQUIRING ADDITIONAL DATA,,,,,,
ImportedInstance_Item_197,Symptoms Present During Event,Symptoms Present During Event,string,20,,,FA:FAORRES where FATESTCD=['PANSYMP'],Collected Value,FINDCAT:AE REQUIRING ADDITIONAL DATA,,,,,,
ImportedInstance_Item_198,Risk Factor - Trauma to the Pancreas,Risk Factor - Trauma to the Pancreas,string,20,,,FA:FAORRES where FATESTCD=['PANTRUMA'],Collected Value,FINDCAT:AE REQUIRING ADDITIONAL DATA,,,,,,
ImportedInstance_Item_199,Treatment Type,Treatment Type,string,20,,,FA:FAORRES where FATESTCD=['PANTRT'],Collected Value,FINDCAT:AE REQUIRING ADDITIONAL DATA,,,,,,
ImportedInstance_Item_200,Imaging Method - Ultrasound,Imaging Method - Ultrasound,string,20,,,FA:FAORRES where FATESTCD=['PANULTRA'],Collected Value,FINDCAT:AE REQUIRING ADDITIONAL DATA,,,,,,
ImportedInstance_Item_201,Vomiting as Symptom,Vomiting as Symptom,string,20,,,FA:FAORRES where FATESTCD=['PANVOMIT'],Collected Value,FINDCAT:AE REQUIRING ADDITIONAL DATA,,,,,,
ImportedInstance_Item_202,PH Dipstick,PH Dipstick,string,20,,,LB:LBORRES where LBTESTCD=['PH'],Collected Value,FINDCAT:URINALYSIS,,,,,,
ImportedInstance_Item_203,specimen,specimen,string,20,,,,Collected Value,FINDCAT:URINALYSIS,,,,,,
ImportedInstance_Item_204,Urine pH,Urine pH,integer,3,,,LB:LBORRES where LBTESTCD=['PH'],Collected Value,FINDCAT:URINALYSIS,no unit,,,,,
ImportedInstance_Item_205,specimen,specimen,string,20,,,,Collected Value,FINDCAT:URINALYSIS,,,,,,
ImportedInstance_Item_206,Platelets,Platelets,integer,3,,,LB:LBORRES where LBTESTCD=['PLAT'],Collected Value,FINDCAT:AE REQUIRING ADDITIONAL DATA,10^9/L,,,,,
ImportedInstance_Item_207,"Potassium, AE Requiring Additional Data","Potassium, AE Requiring Additional Data",integer,3,,,LB:LBORRES where LBTESTCD=['K'],Collected Value,FINDCAT:AE REQUIRING ADDITIONAL DATA,mmol/L,,,,,
ImportedInstance_Item_208,"Potassium, Biochemistry","Potassium, Biochemistry",integer,3,,,LB:LBORRES where LBTESTCD=['K'],Collected Value,FINDCAT:BIOCHEMISTRY,mmol/L,,,,,
ImportedInstance_Item_209,specimen,specimen,string,20,,,,Collected Value,FINDCAT:BIOCHEMISTRY,,,,,,
ImportedInstance_Item_210,Protein,Protein,integer,3,,,LB:LBORRES where LBTESTCD=['PROT'],Collected Value,FINDCAT:AE REQUIRING ADDITIONAL DATA,g/L,,,,,
ImportedInstance_Item_211,specimen,specimen,string,20,,,,Collected Value,FINDCAT:AE REQUIRING ADDITIONAL DATA,,,,,,
ImportedInstance_Item_212,"Prothrombin Time, AE Requiring Additional Data","Prothrombin Time, AE Requiring Additional Data",integer,3,,,LB:LBORRES where LBTESTCD=['PT'],Collected Value,FINDCAT:AE REQUIRING ADDITIONAL DATA,s,,,,,
ImportedInstance_Item_213,"Protein Urine, Stick","Protein Urine, Stick",string,20,,,LB:LBORRES where LBTESTCD=['PROT'],Collected Value,FINDCAT:URINALYSIS,,,,,,
ImportedInstance_Item_214,specimen,specimen,string,20,,,,Collected Value,FINDCAT:URINALYSIS,,,,,,
ImportedInstance_Item_215,"Prothrombin Time, Plasma","Prothrombin Time, Plasma",integer,3,,,LB:LBORRES where LBTESTCD=['PT'],Collected Value,FINDCAT:COAGULATION PARAMETER,s,,,,,
ImportedInstance_Item_216,specimen,specimen,string,20,,,,Collected Value,FINDCAT:COAGULATION PARAMETER,,,,,,
ImportedInstance_Item_217,Pulse,Pulse,integer,3,,,VS:VSORRES where VSTESTCD=['PULSE'],Collected Value,FINDCAT:VITAL SIGNS,beats/min,,,,,
ImportedInstance_Item_218,position,position,string,20,,,VS:VSPOSITION,Collected Value,FINDCAT:VITAL SIGNS,,,POSITION,SUPINE||SITTING,,
ImportedInstance_Item_219,Race,Race,string,20,,,,Collected Value,FINDCAT:DEMOGRAPHY,,,,,,
ImportedInstance_Item_220,"Erythrocytes in Urine, AE Requiring Additional Data","Erythrocytes in Urine, AE Requiring Additional Data",string,20,,,LB:LBORRES where LBTESTCD=['RBC'],Collected Value,FINDCAT:AE REQUIRING ADDITIONAL DATA,,,,,,
ImportedInstance_Item_221,"Erythrocytes in Urine, Urinalysis","Erythrocytes in Urine, Urinalysis",string,20,,,LB:LBORRES where LBTESTCD=['RBC'],Collected Value,FINDCAT:URINALYSIS,,,,,,
ImportedInstance_Item_222,specimen,specimen,string,20,,,,Collected Value,FINDCAT:URINALYSIS,,,,,,
ImportedInstance_Item_223,Reason for Undetermined Death Cause 1,Reason for Undetermined Death Cause 1,string,20,,,ZA:ZAORRES where ZATESTCD=['REASDEA1'],Collected Value,FINDCAT:EVENT ADJUDICATION,,,,,,
ImportedInstance_Item_224,Respiratory Rate,Respiratory Rate,integer,3,,,VS:VSORRES where VSTESTCD=['RESP'],Collected Value,FINDCAT:VITAL SIGNS,breaths/min,,,,,
ImportedInstance_Item_225,Seizure,Seizure,string,20,,,ZA:ZAORRES where ZATESTCD=['HYSEIZUR'],Collected Value,FINDCAT:EVENT ADJUDICATION,,,,,,
ImportedInstance_Item_226,"Creatinine, AE Requiring Additional Data","Creatinine, AE Requiring Additional Data",integer,3,,,LB:LBORRES where LBTESTCD=['CREAT'],Collected Value,FINDCAT:AE REQUIRING ADDITIONAL DATA,umol/L,,,,,
ImportedInstance_Item_227,specimen,specimen,string,20,,,,Collected Value,FINDCAT:AE REQUIRING ADDITIONAL DATA,,,,,,
ImportedInstance_Item_228,Severe Acute Upper Abdominal Pain,Severe Acute Upper Abdominal Pain,string,20,,,ZA:ZAORRES where ZATESTCD=['ACUTPAIN'],Collected Value,FINDCAT:EVENT ADJUDICATION,,,,,,
ImportedInstance_Item_229,Severity of Pancreatitis,Severity of Pancreatitis,string,20,,,ZA:ZAORRES where ZATESTCD=['SEVPANCR'],Collected Value,FINDCAT:EVENT ADJUDICATION,,,,,,
ImportedInstance_Item_230,Sex,Sex,string,20,,,,Collected Value,FINDCAT:DEMOGRAPHY,,,,,,
ImportedInstance_Item_231,"Sodium, AE Requiring Additional Data","Sodium, AE Requiring Additional Data",integer,3,,,LB:LBORRES where LBTESTCD=['SODIUM'],Collected Value,FINDCAT:AE REQUIRING ADDITIONAL DATA,mmol/L,,,,,
ImportedInstance_Item_232,"Sodium, Biochemistry","Sodium, Biochemistry",integer,3,,,LB:LBORRES where LBTESTCD=['SODIUM'],Collected Value,FINDCAT:BIOCHEMISTRY,mmol/L,,,,,
ImportedInstance_Item_233,specimen,specimen,string,20,,,,Collected Value,FINDCAT:BIOCHEMISTRY,,,,,,
ImportedInstance_Item_234,Source of Adjudicated Event,Source of Adjudicated Event,string,20,,,ZA:ZAORRES where ZATESTCD=['SOURADEV'],Collected Value,FINDCAT:EVENT ADJUDICATION,,,,,,
ImportedInstance_Item_235,Subject Fasting,Subject Fasting,string,20,,,LB:LBORRES where LBTESTCD=['FASTYN'],Collected Value,FINDCAT:COLLECTION OF SAMPLES,,,,,,
ImportedInstance_Item_236,Subject Died,Subject Died,string,20,,,ZA:ZAORRES where ZATESTCD=['SUBJDIED'],Collected Value,FINDCAT:EVENT ADJUDICATION,,,,,,
ImportedInstance_Item_237,Symptom of Pancreatitis 1,Symptom of Pancreatitis 1,string,20,,,ZA:ZAORRES where ZATESTCD=['SYMPANC1'],Collected Value,FINDCAT:EVENT ADJUDICATION,,,,,,
ImportedInstance_Item_238,Symptom of Pancreatitis 2,Symptom of Pancreatitis 2,string,20,,,ZA:ZAORRES where ZATESTCD=['SYMPANC2'],Collected Value,FINDCAT:EVENT ADJUDICATION,,,,,,
ImportedInstance_Item_239,Symptom of Pancreatitis 3,Symptom of Pancreatitis 3,string,20,,,ZA:ZAORRES where ZATESTCD=['SYMPANC3'],Collected Value,FINDCAT:EVENT ADJUDICATION,,,,,,
ImportedInstance_Item_240,Symptom of Unstable Angina Pectoris 1,Symptom of Unstable Angina Pectoris 1,string,20,,,ZA:ZAORRES where ZATESTCD=['SYMUNMI1'],Collected Value,FINDCAT:EVENT ADJUDICATION,,,,,,
ImportedInstance_Item_241,Symptom of Unstable Angina Pectoris 2,Symptom of Unstable Angina Pectoris 2,string,20,,,ZA:ZAORRES where ZATESTCD=['SYMUNMI2'],Collected Value,FINDCAT:EVENT ADJUDICATION,,,,,,
ImportedInstance_Item_242,Symptom of Unstable Angina Pectoris 3,Symptom of Unstable Angina Pectoris 3,string,20,,,ZA:ZAORRES where ZATESTCD=['SYMUNMI3'],Collected Value,FINDCAT:EVENT ADJUDICATION,,,,,,
ImportedInstance_Item_243,Symptom of Unstable Angina Pectoris 4,Symptom of Unstable Angina Pectoris 4,string,20,,,ZA:ZAORRES where ZATESTCD=['SYMUNMI4'],Collected Value,FINDCAT:EVENT ADJUDICATION,,,,,,
ImportedInstance_Item_244,Thrombocytes,Thrombocytes,integer,3,,,LB:LBORRES where LBTESTCD=['PLAT'],Collected Value,FINDCAT:HAEMATOLOGY,10^9/L,,,,,
ImportedInstance_Item_245,specimen,specimen,string,20,,,,Collected Value,FINDCAT:HAEMATOLOGY,,,,,,
ImportedInstance_Item_246,Treadmill - Pain-Free Walking Distance on Flat Treadmill,Treadmill - Pain-Free Walking Distance on Flat Treadmill,integer,3,,,FT:FTORRES where FTTESTCD=['TM0101'],Collected Value,FINDCAT:TREADMILL,m,,,,,
ImportedInstance_Item_247,Treadmill - Pain-Free Walking Distance on Inclined Treadmill,Treadmill - Pain-Free Walking Distance on Inclined Treadmill,integer,3,,,FT:FTORRES where FTTESTCD=['TM0102'],Collected Value,FINDCAT:TREADMILL,m,,,,,
ImportedInstance_Item_248,Treadmill - Max Walking Distance on Inclined Treadmill,Treadmill - Max Walking Distance on Inclined Treadmill,integer,3,,,FT:FTORRES where FTTESTCD=['TM0103'],Collected Value,FINDCAT:TREADMILL,m,,,,,
ImportedInstance_Item_249,TOAST Classification,TOAST Classification,string,20,,,ZA:ZAORRES where ZATESTCD=['TOASTCL'],Collected Value,FINDCAT:EVENT ADJUDICATION,,,,,,
ImportedInstance_Item_250,"Total Protein, g/dL","Total Protein, g/dL",integer,3,,,LB:LBORRES where LBTESTCD=['PROT'],Collected Value,FINDCAT:BIOCHEMISTRY,g/dL,,,,,
ImportedInstance_Item_251,specimen,specimen,string,20,,,,Collected Value,FINDCAT:BIOCHEMISTRY,,,,,,
ImportedInstance_Item_252,Type of Heart Failure,Type of Heart Failure,string,20,,,ZA:ZAORRES where ZATESTCD=['TYHHEAFA'],Collected Value,FINDCAT:EVENT ADJUDICATION,,,,,,
ImportedInstance_Item_253,Type of Myocardial Infarction,Type of Myocardial Infarction,string,20,,,ZA:ZAORRES where ZATESTCD=['TYMYOINF'],Collected Value,FINDCAT:EVENT ADJUDICATION,,,,,,
ImportedInstance_Item_254,Type of Stroke,Type of Stroke,string,20,,,ZA:ZAORRES where ZATESTCD=['TYSTROKE'],Collected Value,FINDCAT:EVENT ADJUDICATION,,,,,,
ImportedInstance_Item_255,Leukocytes,Leukocytes,integer,3,,,LB:LBORRES where LBTESTCD=['WBC'],Collected Value,FINDCAT:HAEMATOLOGY,10^9/L,,,,,
ImportedInstance_Item_256,specimen,specimen,string,20,,,,Collected Value,FINDCAT:HAEMATOLOGY,,,,,,
ImportedInstance_Item_257,Unconscious/Coma,Unconscious/Coma,string,20,,,ZA:ZAORRES where ZATESTCD=['UNCOCOMA'],Collected Value,FINDCAT:EVENT ADJUDICATION,,,,,,
ImportedInstance_Item_258,Undetermined Etiology Reason,Undetermined Etiology Reason,string,20,,,ZA:ZAORRES where ZATESTCD=['UNDETIRE'],Collected Value,FINDCAT:EVENT ADJUDICATION,,,,,,
ImportedInstance_Item_259,Details in Source Data,Details in Source Data,string,20,,,ZA:ZAORRES where ZATESTCD=['UNDESOUR'],Collected Value,FINDCAT:EVENT ADJUDICATION,,,,,,
ImportedInstance_Item_260,Urine Culture,Urine Culture,string,20,,,LB:LBORRES where LBTESTCD=['URNCULTR'],Collected Value,FINDCAT:AE REQUIRING ADDITIONAL DATA,,,,,,
ImportedInstance_Item_261,specimen,specimen,string,20,,,,Collected Value,FINDCAT:AE REQUIRING ADDITIONAL DATA,,,,,,
ImportedInstance_Item_262,Urine Microscopy,Urine Microscopy,string,20,,,LB:LBORRES where LBTESTCD=['URNMICRO'],Collected Value,FINDCAT:AE REQUIRING ADDITIONAL DATA,,,,,,
ImportedInstance_Item_263,specimen,specimen,string,20,,,,Collected Value,FINDCAT:AE REQUIRING ADDITIONAL DATA,,,,,,
ImportedInstance_Item_264,Have All Urine Samples Been Taken,Have All Urine Samples Been Taken,string,20,,,LB:LBORRES where LBTESTCD=['LBALL'],Collected Value,FINDCAT:COLLECTION OF SAMPLES,,,,,,
ImportedInstance_Item_265,specimen,specimen,string,20,,,,Collected Value,FINDCAT:COLLECTION OF SAMPLES,,,,,,
ImportedInstance_Item_266,Urobilinogen,Urobilinogen,string,20,,,LB:LBORRES where LBTESTCD=['UROBIL'],Collected Value,FINDCAT:URINALYSIS,,,,,,
ImportedInstance_Item_267,specimen,specimen,string,20,,,,Collected Value,FINDCAT:URINALYSIS,,,,,,
ImportedInstance_Item_268,Urobilinogen Urine,Urobilinogen Urine,string,20,,,LB:LBORRES where LBTESTCD=['UROBIL'],Collected Value,FINDCAT:URINALYSIS,,,,,,
ImportedInstance_Item_269,specimen,specimen,string,20,,,,Collected Value,FINDCAT:URINALYSIS,,,,,,
ImportedInstance_Item_270,Waist Circumference,Waist Circumference,integer,3,,,VS:VSORRES where VSTESTCD=['WSTCIR'],Collected Value,FINDCAT:BODY MEASUREMENT,cm,,,,,
ImportedInstance_Item_271,White Blood Cells,White Blood Cells,integer,3,,,LB:LBORRES where LBTESTCD=['WBC'],Collected Value,FINDCAT:AE REQUIRING ADDITIONAL DATA,10^9/L,,,,,
ImportedInstance_Item_272,"Leukocytes in Urine, AE Requiring Additional Data","Leukocytes in Urine, AE Requiring Additional Data",string,20,,,LB:LBORRES where LBTESTCD=['WBC'],Collected Value,FINDCAT:AE REQUIRING ADDITIONAL DATA,,,,,,
ImportedInstance_Item_273,specimen,specimen,string,20,,,,Collected Value,FINDCAT:AE REQUIRING ADDITIONAL DATA,,,,,,
ImportedInstance_Item_274,"Leukocytes in Urine, Urinalysis","Leukocytes in Urine, Urinalysis",string,20,,,LB:LBORRES where LBTESTCD=['WBC'],Collected Value,FINDCAT:URINALYSIS,,,,,,
ImportedInstance_Item_275,specimen,specimen,string,20,,,,Collected Value,FINDCAT:URINALYSIS,,,,,,
