{
  "name": "Cat1 CT 2020-02-01",
  "label": "Cat1 Controlled Terminology Package 1 Effective 2020-01-01",
  "description": "Cat1: ",
  "source": "Test source",
  "effectiveDate": "2020-02-01",
  "registrationStatus": "Final",
  "version": "2020-01-01",
  "_links": {
    "self": {
      "href": "/mdr/ct/packages/cat1-2020-01-01",
      "title": "Cat1 Controlled Terminology Package 2 Effective 2020-02-01",
      "type": "Terminology"
    },
    "priorVersion": {
      "href": "/mdr/ct/packages/cat1-2019-01-01",
      "title": "Cat1 Controlled Terminology Package 1 Effective 2019-01-01",
      "type": "Terminology"
    }
  },
  "codelists": [
    {
      "conceptId": "C15",
      "extensible": "false",
      "name": "Codelist X Name",
      "submissionValue": "SM X",
      "definition": "Definition C15",
      "preferredTerm": "PT C15",
      "terms": [
        {
          "conceptId": "T15",
          "submissionValue": "name-T15",
          "definition": "Definition T15",
          "preferredTerm": "T15"
        }
      ]
    },
    {
      "conceptId": "C16",
      "extensible": "false",
      "name": "Codelist X Code",
      "submissionValue": "SM XCD",
      "definition": "Definition C16",
      "preferredTerm": "PT C16",
      "terms": [
        {
          "conceptId": "T15",
          "submissionValue": "code-T15",
          "definition": "Definition T15",
          "preferredTerm": "T15"
        }
      ]
    },
    {
      "conceptId": "C17",
      "extensible": "false",
      "name": "Codelist Y Name",
      "submissionValue": "SM Y",
      "definition": "Definition C17",
      "preferredTerm": "PT C17",
      "terms": [
        {
          "conceptId": "T15",
          "submissionValue": "name-T15",
          "definition": "Definition T15",
          "preferredTerm": "T15"
        }
      ]
    },
    {
      "conceptId": "C18",
      "extensible": "false",
      "name": "Codelist Y Code",
      "submissionValue": "SM YCD",
      "definition": "Definition C18",
      "preferredTerm": "PT C18",
      "terms": [
        {
          "conceptId": "T15",
          "submissionValue": "code-T15",
          "definition": "Definition T15",
          "preferredTerm": "T15"
        }
      ]
    }
  ]
}