{
  "name": "Test-Case 13 CT 2020-01-01",
  "label": "Test-Case 13 Controlled Terminology Package 1 Effective 2020-01-01",
  "description": "Test-Case 13: ",
  "source": "Test source",
  "effectiveDate": "2020-01-01",
  "registrationStatus": "Final",
  "version": "2020-01-01",
  "_links": {
    "self": {
      "href": "/mdr/ct/packages/case13-2020-01-01",
      "title": "Test-Case 13 Controlled Terminology Package 2 Effective 2020-01-01",
      "type": "Terminology"
    },
    "priorVersion": {
      "href": "/mdr/ct/packages/case13-2019-12-01",
      "title": "Test-Case 13 Controlled Terminology Package 1 Effective 2019-12-01",
      "type": "Terminology"
    }
  },
  "codelists": [
    {
      "conceptId": "C13",
      "extensible": "false",
      "name": "Codelist C13",
      "submissionValue": "SM C13",
      "definition": "Definition C13",
      "preferredTerm": "PT C13",
      "terms": [
        {
          "conceptId": "T13",
          "submissionValue": "code-T13",
          "definition": "Definition T13",
          "preferredTerm": "T13"
        }
      ]
    }
  ]
}