{
    "_links": {
        "model": {
            "href": "/mdr/adam/adam-2-1",
            "title": "Analysis Data Model Version 2.1",
            "type": "Foundational Model"
        },
        "self": {
            "href": "/mdr/adam/adam-adae-1-0",
            "title": "Analysis Data Model Data Structure for Adverse Event Analysis Version 1.0",
            "type": "Implementation Guide"
        }
    },
    "dataStructures": [
        {
            "_links": {
                "parentProduct": {
                    "href": "/mdr/adam/adam-adae-1-0",
                    "title": "Analysis Data Model Data Structure for Adverse Event Analysis Version 1.0",
                    "type": "Implementation Guide"
                },
                "self": {
                    "href": "/mdr/adam/adam-adae-1-0/datastructures/ADAE",
                    "title": "Adverse Event Analysis Dataset",
                    "type": "Data Structure"
                }
            },
            "analysisVariableSets": [
                {
                    "_links": {
                        "parentDatastructure": {
                            "href": "/mdr/adam/adam-adae-1-0/datastructures/ADAE",
                            "title": "Adverse Event Analysis Dataset",
                            "type": "Data Structure"
                        },
                        "parentProduct": {
                            "href": "/mdr/adam/adam-adae-1-0",
                            "title": "Analysis Data Model Data Structure for Adverse Event Analysis Version 1.0",
                            "type": "Implementation Guide"
                        },
                        "self": {
                            "href": "/mdr/adam/adam-adae-1-0/datastructures/ADAE/varsets/IdentifierVariables",
                            "title": "Identifier Variables",
                            "type": "Variable Set"
                        }
                    },
                    "analysisVariables": [
                        {
                            "_links": {
                                "parentDatastructure": {
                                    "href": "/mdr/adam/adam-adae-1-0/datastructures/ADAE",
                                    "title": "Adverse Event Analysis Dataset",
                                    "type": "Data Structure"
                                },
                                "parentProduct": {
                                    "href": "/mdr/adam/adam-adae-1-0",
                                    "title": "Analysis Data Model Data Structure for Adverse Event Analysis Version 1.0",
                                    "type": "Implementation Guide"
                                },
                                "parentVariableSet": {
                                    "href": "/mdr/adam/adam-adae-1-0/datastructures/ADAE/varsets/IdentifierVariables",
                                    "title": "Identifier Variables",
                                    "type": "Variable Set"
                                },
                                "self": {
                                    "href": "/mdr/adam/adam-adae-1-0/datastructures/ADAE/variables/STUDYID",
                                    "title": "Study Identifier",
                                    "type": "Analysis Variable"
                                }
                            },
                            "core": "Req",
                            "description": "AE.STUDYID",
                            "label": "Study Identifier",
                            "name": "STUDYID",
                            "ordinal": "1",
                            "simpleDatatype": "Char"
                        },
                        {
                            "_links": {
                                "parentDatastructure": {
                                    "href": "/mdr/adam/adam-adae-1-0/datastructures/ADAE",
                                    "title": "Adverse Event Analysis Dataset",
                                    "type": "Data Structure"
                                },
                                "parentProduct": {
                                    "href": "/mdr/adam/adam-adae-1-0",
                                    "title": "Analysis Data Model Data Structure for Adverse Event Analysis Version 1.0",
                                    "type": "Implementation Guide"
                                },
                                "parentVariableSet": {
                                    "href": "/mdr/adam/adam-adae-1-0/datastructures/ADAE/varsets/IdentifierVariables",
                                    "title": "Identifier Variables",
                                    "type": "Variable Set"
                                },
                                "self": {
                                    "href": "/mdr/adam/adam-adae-1-0/datastructures/ADAE/variables/USUBJID",
                                    "title": "Unique Subject Identifier",
                                    "type": "Analysis Variable"
                                }
                            },
                            "core": "Req",
                            "description": "AE.USUBJID",
                            "label": "Unique Subject Identifier",
                            "name": "USUBJID",
                            "ordinal": "2",
                            "simpleDatatype": "Char"
                        },
                        {
                            "_links": {
                                "parentDatastructure": {
                                    "href": "/mdr/adam/adam-adae-1-0/datastructures/ADAE",
                                    "title": "Adverse Event Analysis Dataset",
                                    "type": "Data Structure"
                                },
                                "parentProduct": {
                                    "href": "/mdr/adam/adam-adae-1-0",
                                    "title": "Analysis Data Model Data Structure for Adverse Event Analysis Version 1.0",
                                    "type": "Implementation Guide"
                                },
                                "parentVariableSet": {
                                    "href": "/mdr/adam/adam-adae-1-0/datastructures/ADAE/varsets/IdentifierVariables",
                                    "title": "Identifier Variables",
                                    "type": "Variable Set"
                                },
                                "self": {
                                    "href": "/mdr/adam/adam-adae-1-0/datastructures/ADAE/variables/SUBJID",
                                    "title": "Subject Identifier for the Study",
                                    "type": "Analysis Variable"
                                }
                            },
                            "core": "Perm",
                            "description": "ADSL.SUBJID",
                            "label": "Subject Identifier for the Study",
                            "name": "SUBJID",
                            "ordinal": "3",
                            "simpleDatatype": "Char"
                        },
                        {
                            "_links": {
                                "parentDatastructure": {
                                    "href": "/mdr/adam/adam-adae-1-0/datastructures/ADAE",
                                    "title": "Adverse Event Analysis Dataset",
                                    "type": "Data Structure"
                                },
                                "parentProduct": {
                                    "href": "/mdr/adam/adam-adae-1-0",
                                    "title": "Analysis Data Model Data Structure for Adverse Event Analysis Version 1.0",
                                    "type": "Implementation Guide"
                                },
                                "parentVariableSet": {
                                    "href": "/mdr/adam/adam-adae-1-0/datastructures/ADAE/varsets/IdentifierVariables",
                                    "title": "Identifier Variables",
                                    "type": "Variable Set"
                                },
                                "self": {
                                    "href": "/mdr/adam/adam-adae-1-0/datastructures/ADAE/variables/SITEID",
                                    "title": "Study Site Identifier",
                                    "type": "Analysis Variable"
                                }
                            },
                            "core": "Perm",
                            "description": "ADSL.SITEID",
                            "label": "Study Site Identifier",
                            "name": "SITEID",
                            "ordinal": "4",
                            "simpleDatatype": "Char"
                        },
                        {
                            "_links": {
                                "parentDatastructure": {
                                    "href": "/mdr/adam/adam-adae-1-0/datastructures/ADAE",
                                    "title": "Adverse Event Analysis Dataset",
                                    "type": "Data Structure"
                                },
                                "parentProduct": {
                                    "href": "/mdr/adam/adam-adae-1-0",
                                    "title": "Analysis Data Model Data Structure for Adverse Event Analysis Version 1.0",
                                    "type": "Implementation Guide"
                                },
                                "parentVariableSet": {
                                    "href": "/mdr/adam/adam-adae-1-0/datastructures/ADAE/varsets/IdentifierVariables",
                                    "title": "Identifier Variables",
                                    "type": "Variable Set"
                                },
                                "self": {
                                    "href": "/mdr/adam/adam-adae-1-0/datastructures/ADAE/variables/AESEQ",
                                    "title": "Sequence Number",
                                    "type": "Analysis Variable"
                                }
                            },
                            "core": "Req",
                            "description": "AE.AESEQ Required for traceability back to SDTM AE.",
                            "label": "Sequence Number",
                            "name": "AESEQ",
                            "ordinal": "5",
                            "simpleDatatype": "Num"
                        }
                    ],
                    "label": "Identifier Variables",
                    "name": "Identifier Variables",
                    "ordinal": "1"
                },
                {
                    "_links": {
                        "parentDatastructure": {
                            "href": "/mdr/adam/adam-adae-1-0/datastructures/ADAE",
                            "title": "Adverse Event Analysis Dataset",
                            "type": "Data Structure"
                        },
                        "parentProduct": {
                            "href": "/mdr/adam/adam-adae-1-0",
                            "title": "Analysis Data Model Data Structure for Adverse Event Analysis Version 1.0",
                            "type": "Implementation Guide"
                        },
                        "self": {
                            "href": "/mdr/adam/adam-adae-1-0/datastructures/ADAE/varsets/DictionaryCodingVariablesForMedDRA",
                            "title": "Dictionary Coding Variables for MedDRA",
                            "type": "Variable Set"
                        }
                    },
                    "analysisVariables": [
                        {
                            "_links": {
                                "parentDatastructure": {
                                    "href": "/mdr/adam/adam-adae-1-0/datastructures/ADAE",
                                    "title": "Adverse Event Analysis Dataset",
                                    "type": "Data Structure"
                                },
                                "parentProduct": {
                                    "href": "/mdr/adam/adam-adae-1-0",
                                    "title": "Analysis Data Model Data Structure for Adverse Event Analysis Version 1.0",
                                    "type": "Implementation Guide"
                                },
                                "parentVariableSet": {
                                    "href": "/mdr/adam/adam-adae-1-0/datastructures/ADAE/varsets/DictionaryCodingVariablesForMedDRA",
                                    "title": "Dictionary Coding Variables for MedDRA",
                                    "type": "Variable Set"
                                },
                                "self": {
                                    "href": "/mdr/adam/adam-adae-1-0/datastructures/ADAE/variables/AETERM",
                                    "title": "Reported Term for the Adverse Event",
                                    "type": "Analysis Variable"
                                }
                            },
                            "core": "Req",
                            "description": "AE.AETERM",
                            "label": "Reported Term for the Adverse Event",
                            "name": "AETERM",
                            "ordinal": "6",
                            "simpleDatatype": "Char"
                        },
                        {
                            "_links": {
                                "parentDatastructure": {
                                    "href": "/mdr/adam/adam-adae-1-0/datastructures/ADAE",
                                    "title": "Adverse Event Analysis Dataset",
                                    "type": "Data Structure"
                                },
                                "parentProduct": {
                                    "href": "/mdr/adam/adam-adae-1-0",
                                    "title": "Analysis Data Model Data Structure for Adverse Event Analysis Version 1.0",
                                    "type": "Implementation Guide"
                                },
                                "parentVariableSet": {
                                    "href": "/mdr/adam/adam-adae-1-0/datastructures/ADAE/varsets/DictionaryCodingVariablesForMedDRA",
                                    "title": "Dictionary Coding Variables for MedDRA",
                                    "type": "Variable Set"
                                },
                                "self": {
                                    "href": "/mdr/adam/adam-adae-1-0/datastructures/ADAE/variables/AEDECOD",
                                    "title": "Dictionary-Derived Term",
                                    "type": "Analysis Variable"
                                }
                            },
                            "core": "Req",
                            "describedValueDomain": "MedDRA",
                            "description": "AE.AEDECOD This is typically one of the primary variables used in an AE analysis and would be brought in from the SDTM AE domain. Equivalent to the Preferred Term (PT in MedDRA). As mentioned above, all other SDTM AE and SUPPAE domain variables needed for analysis or traceability should also be included. Include the dictionary version in the variable metadata.",
                            "label": "Dictionary-Derived Term",
                            "name": "AEDECOD",
                            "ordinal": "7",
                            "simpleDatatype": "Char"
                        },
                        {
                            "_links": {
                                "parentDatastructure": {
                                    "href": "/mdr/adam/adam-adae-1-0/datastructures/ADAE",
                                    "title": "Adverse Event Analysis Dataset",
                                    "type": "Data Structure"
                                },
                                "parentProduct": {
                                    "href": "/mdr/adam/adam-adae-1-0",
                                    "title": "Analysis Data Model Data Structure for Adverse Event Analysis Version 1.0",
                                    "type": "Implementation Guide"
                                },
                                "parentVariableSet": {
                                    "href": "/mdr/adam/adam-adae-1-0/datastructures/ADAE/varsets/DictionaryCodingVariablesForMedDRA",
                                    "title": "Dictionary Coding Variables for MedDRA",
                                    "type": "Variable Set"
                                },
                                "self": {
                                    "href": "/mdr/adam/adam-adae-1-0/datastructures/ADAE/variables/AEBODSYS",
                                    "title": "Body System or Organ Class",
                                    "type": "Analysis Variable"
                                }
                            },
                            "core": "Req",
                            "describedValueDomain": "MedDRA",
                            "description": "AE.AEBODSYS This is typically one of the primary variables used by the Sponsor in an AE analysis and would be brought in from the SDTM AE domain. As mentioned above, all other SDTM AE and SUPPAE domain variables needed for analysis or traceability should also be included. Include the dictionary version in the variable metadata.",
                            "label": "Body System or Organ Class",
                            "name": "AEBODSYS",
                            "ordinal": "8",
                            "simpleDatatype": "Char"
                        },
                        {
                            "_links": {
                                "parentDatastructure": {
                                    "href": "/mdr/adam/adam-adae-1-0/datastructures/ADAE",
                                    "title": "Adverse Event Analysis Dataset",
                                    "type": "Data Structure"
                                },
                                "parentProduct": {
                                    "href": "/mdr/adam/adam-adae-1-0",
                                    "title": "Analysis Data Model Data Structure for Adverse Event Analysis Version 1.0",
                                    "type": "Implementation Guide"
                                },
                                "parentVariableSet": {
                                    "href": "/mdr/adam/adam-adae-1-0/datastructures/ADAE/varsets/DictionaryCodingVariablesForMedDRA",
                                    "title": "Dictionary Coding Variables for MedDRA",
                                    "type": "Variable Set"
                                },
                                "self": {
                                    "href": "/mdr/adam/adam-adae-1-0/datastructures/ADAE/variables/AEBDSYCD",
                                    "title": "Body System or Organ Class Code",
                                    "type": "Analysis Variable"
                                }
                            },
                            "core": "Perm",
                            "describedValueDomain": "MedDRA",
                            "description": "AE.AEBDSYCD This would be copied from the SDTM AE domain or supplemental qualifier dataset. Include the dictionary version in the variable metadata.",
                            "label": "Body System or Organ Class Code",
                            "name": "AEBDSYCD",
                            "ordinal": "9",
                            "simpleDatatype": "Num"
                        },
                        {
                            "_links": {
                                "parentDatastructure": {
                                    "href": "/mdr/adam/adam-adae-1-0/datastructures/ADAE",
                                    "title": "Adverse Event Analysis Dataset",
                                    "type": "Data Structure"
                                },
                                "parentProduct": {
                                    "href": "/mdr/adam/adam-adae-1-0",
                                    "title": "Analysis Data Model Data Structure for Adverse Event Analysis Version 1.0",
                                    "type": "Implementation Guide"
                                },
                                "parentVariableSet": {
                                    "href": "/mdr/adam/adam-adae-1-0/datastructures/ADAE/varsets/DictionaryCodingVariablesForMedDRA",
                                    "title": "Dictionary Coding Variables for MedDRA",
                                    "type": "Variable Set"
                                },
                                "self": {
                                    "href": "/mdr/adam/adam-adae-1-0/datastructures/ADAE/variables/AELLT",
                                    "title": "Lowest Level Term",
                                    "type": "Analysis Variable"
                                }
                            },
                            "core": "Cond",
                            "describedValueDomain": "MedDRA",
                            "description": "AE.AELLT This would be copied from the SDTM AE domain or supplemental qualifier dataset. Include the dictionary version in the variable metadata. Conditional on whether used for analysis.",
                            "label": "Lowest Level Term",
                            "name": "AELLT",
                            "ordinal": "10",
                            "simpleDatatype": "Char"
                        },
                        {
                            "_links": {
                                "parentDatastructure": {
                                    "href": "/mdr/adam/adam-adae-1-0/datastructures/ADAE",
                                    "title": "Adverse Event Analysis Dataset",
                                    "type": "Data Structure"
                                },
                                "parentProduct": {
                                    "href": "/mdr/adam/adam-adae-1-0",
                                    "title": "Analysis Data Model Data Structure for Adverse Event Analysis Version 1.0",
                                    "type": "Implementation Guide"
                                },
                                "parentVariableSet": {
                                    "href": "/mdr/adam/adam-adae-1-0/datastructures/ADAE/varsets/DictionaryCodingVariablesForMedDRA",
                                    "title": "Dictionary Coding Variables for MedDRA",
                                    "type": "Variable Set"
                                },
                                "self": {
                                    "href": "/mdr/adam/adam-adae-1-0/datastructures/ADAE/variables/AELLTCD",
                                    "title": "Lowest Level Term Code",
                                    "type": "Analysis Variable"
                                }
                            },
                            "core": "Perm",
                            "describedValueDomain": "MedDRA",
                            "description": "AE.AELLTCD This would be copied from the SDTM AE domain or supplemental qualifier dataset. Include the dictionary version in the variable metadata.",
                            "label": "Lowest Level Term Code",
                            "name": "AELLTCD",
                            "ordinal": "11",
                            "simpleDatatype": "Num"
                        },
                        {
                            "_links": {
                                "parentDatastructure": {
                                    "href": "/mdr/adam/adam-adae-1-0/datastructures/ADAE",
                                    "title": "Adverse Event Analysis Dataset",
                                    "type": "Data Structure"
                                },
                                "parentProduct": {
                                    "href": "/mdr/adam/adam-adae-1-0",
                                    "title": "Analysis Data Model Data Structure for Adverse Event Analysis Version 1.0",
                                    "type": "Implementation Guide"
                                },
                                "parentVariableSet": {
                                    "href": "/mdr/adam/adam-adae-1-0/datastructures/ADAE/varsets/DictionaryCodingVariablesForMedDRA",
                                    "title": "Dictionary Coding Variables for MedDRA",
                                    "type": "Variable Set"
                                },
                                "self": {
                                    "href": "/mdr/adam/adam-adae-1-0/datastructures/ADAE/variables/AEPTCD",
                                    "title": "Preferred Term Code",
                                    "type": "Analysis Variable"
                                }
                            },
                            "core": "Perm",
                            "describedValueDomain": "MedDRA",
                            "description": "AE.AEPTCD This would be copied from the SDTM AE domain or supplemental qualifier dataset. Include the dictionary version in the variable metadata.",
                            "label": "Preferred Term Code",
                            "name": "AEPTCD",
                            "ordinal": "12",
                            "simpleDatatype": "Num"
                        },
                        {
                            "_links": {
                                "parentDatastructure": {
                                    "href": "/mdr/adam/adam-adae-1-0/datastructures/ADAE",
                                    "title": "Adverse Event Analysis Dataset",
                                    "type": "Data Structure"
                                },
                                "parentProduct": {
                                    "href": "/mdr/adam/adam-adae-1-0",
                                    "title": "Analysis Data Model Data Structure for Adverse Event Analysis Version 1.0",
                                    "type": "Implementation Guide"
                                },
                                "parentVariableSet": {
                                    "href": "/mdr/adam/adam-adae-1-0/datastructures/ADAE/varsets/DictionaryCodingVariablesForMedDRA",
                                    "title": "Dictionary Coding Variables for MedDRA",
                                    "type": "Variable Set"
                                },
                                "self": {
                                    "href": "/mdr/adam/adam-adae-1-0/datastructures/ADAE/variables/AEHLT",
                                    "title": "High Level Term",
                                    "type": "Analysis Variable"
                                }
                            },
                            "core": "Cond",
                            "describedValueDomain": "MedDRA",
                            "description": "AE.AEHLT This would be copied from the SDTM AE domain or supplemental qualifier dataset. Include the dictionary version in the variable metadata. Conditional on whether used for analysis.",
                            "label": "High Level Term",
                            "name": "AEHLT",
                            "ordinal": "13",
                            "simpleDatatype": "Char"
                        },
                        {
                            "_links": {
                                "parentDatastructure": {
                                    "href": "/mdr/adam/adam-adae-1-0/datastructures/ADAE",
                                    "title": "Adverse Event Analysis Dataset",
                                    "type": "Data Structure"
                                },
                                "parentProduct": {
                                    "href": "/mdr/adam/adam-adae-1-0",
                                    "title": "Analysis Data Model Data Structure for Adverse Event Analysis Version 1.0",
                                    "type": "Implementation Guide"
                                },
                                "parentVariableSet": {
                                    "href": "/mdr/adam/adam-adae-1-0/datastructures/ADAE/varsets/DictionaryCodingVariablesForMedDRA",
                                    "title": "Dictionary Coding Variables for MedDRA",
                                    "type": "Variable Set"
                                },
                                "self": {
                                    "href": "/mdr/adam/adam-adae-1-0/datastructures/ADAE/variables/AEHLTCD",
                                    "title": "High Level Term Code",
                                    "type": "Analysis Variable"
                                }
                            },
                            "core": "Perm",
                            "describedValueDomain": "MedDRA",
                            "description": "AE.AEHLTCD This would be copied from the SDTM AE domain or supplemental qualifier dataset. Include the dictionary version in the variable metadata.",
                            "label": "High Level Term Code",
                            "name": "AEHLTCD",
                            "ordinal": "14",
                            "simpleDatatype": "Num"
                        },
                        {
                            "_links": {
                                "parentDatastructure": {
                                    "href": "/mdr/adam/adam-adae-1-0/datastructures/ADAE",
                                    "title": "Adverse Event Analysis Dataset",
                                    "type": "Data Structure"
                                },
                                "parentProduct": {
                                    "href": "/mdr/adam/adam-adae-1-0",
                                    "title": "Analysis Data Model Data Structure for Adverse Event Analysis Version 1.0",
                                    "type": "Implementation Guide"
                                },
                                "parentVariableSet": {
                                    "href": "/mdr/adam/adam-adae-1-0/datastructures/ADAE/varsets/DictionaryCodingVariablesForMedDRA",
                                    "title": "Dictionary Coding Variables for MedDRA",
                                    "type": "Variable Set"
                                },
                                "self": {
                                    "href": "/mdr/adam/adam-adae-1-0/datastructures/ADAE/variables/AEHLGT",
                                    "title": "High Level Group Term",
                                    "type": "Analysis Variable"
                                }
                            },
                            "core": "Cond",
                            "describedValueDomain": "MedDRA",
                            "description": "AE.AEHLGT This would be copied from the SDTM AE domain or supplemental qualifier dataset. Include the dictionary version in the variable metadata. Conditional on whether used for analysis.",
                            "label": "High Level Group Term",
                            "name": "AEHLGT",
                            "ordinal": "15",
                            "simpleDatatype": "Char"
                        },
                        {
                            "_links": {
                                "parentDatastructure": {
                                    "href": "/mdr/adam/adam-adae-1-0/datastructures/ADAE",
                                    "title": "Adverse Event Analysis Dataset",
                                    "type": "Data Structure"
                                },
                                "parentProduct": {
                                    "href": "/mdr/adam/adam-adae-1-0",
                                    "title": "Analysis Data Model Data Structure for Adverse Event Analysis Version 1.0",
                                    "type": "Implementation Guide"
                                },
                                "parentVariableSet": {
                                    "href": "/mdr/adam/adam-adae-1-0/datastructures/ADAE/varsets/DictionaryCodingVariablesForMedDRA",
                                    "title": "Dictionary Coding Variables for MedDRA",
                                    "type": "Variable Set"
                                },
                                "self": {
                                    "href": "/mdr/adam/adam-adae-1-0/datastructures/ADAE/variables/AEHLTGCD",
                                    "title": "High Level Group Term Code",
                                    "type": "Analysis Variable"
                                }
                            },
                            "core": "Perm",
                            "describedValueDomain": "MedDRA",
                            "description": "AE.AEHLGTCD This would be copied from the SDTM AE domain or supplemental qualifier dataset. Include the dictionary version in the variable metadata.",
                            "label": "High Level Group Term Code",
                            "name": "AEHLTGCD",
                            "ordinal": "16",
                            "simpleDatatype": "Char"
                        },
                        {
                            "_links": {
                                "parentDatastructure": {
                                    "href": "/mdr/adam/adam-adae-1-0/datastructures/ADAE",
                                    "title": "Adverse Event Analysis Dataset",
                                    "type": "Data Structure"
                                },
                                "parentProduct": {
                                    "href": "/mdr/adam/adam-adae-1-0",
                                    "title": "Analysis Data Model Data Structure for Adverse Event Analysis Version 1.0",
                                    "type": "Implementation Guide"
                                },
                                "parentVariableSet": {
                                    "href": "/mdr/adam/adam-adae-1-0/datastructures/ADAE/varsets/DictionaryCodingVariablesForMedDRA",
                                    "title": "Dictionary Coding Variables for MedDRA",
                                    "type": "Variable Set"
                                },
                                "self": {
                                    "href": "/mdr/adam/adam-adae-1-0/datastructures/ADAE/variables/AESOC",
                                    "title": "Primary System Organ Class",
                                    "type": "Analysis Variable"
                                }
                            },
                            "core": "Cond",
                            "describedValueDomain": "MedDRA",
                            "description": "AE.AESOC This would be copied from the SDTM AE domain or supplemental qualifier dataset. Include the dictionary version in the variable metadata. Conditional on whether a secondary SOC was used for the primary analysis. See Amendment 1 to SDTM [3].",
                            "label": "Primary System Organ Class",
                            "name": "AESOC",
                            "ordinal": "17",
                            "simpleDatatype": "Char"
                        },
                        {
                            "_links": {
                                "parentDatastructure": {
                                    "href": "/mdr/adam/adam-adae-1-0/datastructures/ADAE",
                                    "title": "Adverse Event Analysis Dataset",
                                    "type": "Data Structure"
                                },
                                "parentProduct": {
                                    "href": "/mdr/adam/adam-adae-1-0",
                                    "title": "Analysis Data Model Data Structure for Adverse Event Analysis Version 1.0",
                                    "type": "Implementation Guide"
                                },
                                "parentVariableSet": {
                                    "href": "/mdr/adam/adam-adae-1-0/datastructures/ADAE/varsets/DictionaryCodingVariablesForMedDRA",
                                    "title": "Dictionary Coding Variables for MedDRA",
                                    "type": "Variable Set"
                                },
                                "self": {
                                    "href": "/mdr/adam/adam-adae-1-0/datastructures/ADAE/variables/AESOCCD",
                                    "title": "Primary System Organ Class Code",
                                    "type": "Analysis Variable"
                                }
                            },
                            "core": "Perm",
                            "describedValueDomain": "MedDRA",
                            "description": "AE.AESOCCD This would be copied from the SDTM AE domain or supplemental qualifier dataset. Include the dictionary version in the variable metadata.",
                            "label": "Primary System Organ Class Code",
                            "name": "AESOCCD",
                            "ordinal": "18",
                            "simpleDatatype": "Num"
                        }
                    ],
                    "label": "Dictionary Coding Variables for MedDRA",
                    "name": "Dictionary Coding Variables for MedDRA",
                    "ordinal": "2"
                },
                {
                    "_links": {
                        "parentDatastructure": {
                            "href": "/mdr/adam/adam-adae-1-0/datastructures/ADAE",
                            "title": "Adverse Event Analysis Dataset",
                            "type": "Data Structure"
                        },
                        "parentProduct": {
                            "href": "/mdr/adam/adam-adae-1-0",
                            "title": "Analysis Data Model Data Structure for Adverse Event Analysis Version 1.0",
                            "type": "Implementation Guide"
                        },
                        "self": {
                            "href": "/mdr/adam/adam-adae-1-0/datastructures/ADAE/varsets/TimingVariables",
                            "title": "Timing Variables",
                            "type": "Variable Set"
                        }
                    },
                    "analysisVariables": [
                        {
                            "_links": {
                                "parentDatastructure": {
                                    "href": "/mdr/adam/adam-adae-1-0/datastructures/ADAE",
                                    "title": "Adverse Event Analysis Dataset",
                                    "type": "Data Structure"
                                },
                                "parentProduct": {
                                    "href": "/mdr/adam/adam-adae-1-0",
                                    "title": "Analysis Data Model Data Structure for Adverse Event Analysis Version 1.0",
                                    "type": "Implementation Guide"
                                },
                                "parentVariableSet": {
                                    "href": "/mdr/adam/adam-adae-1-0/datastructures/ADAE/varsets/TimingVariables",
                                    "title": "Timing Variables",
                                    "type": "Variable Set"
                                },
                                "self": {
                                    "href": "/mdr/adam/adam-adae-1-0/datastructures/ADAE/variables/AESTDTC",
                                    "title": "Start Date/Time of Adverse Event",
                                    "type": "Analysis Variable"
                                }
                            },
                            "core": "Perm",
                            "describedValueDomain": "ISO 8601",
                            "description": "Copied from AE.AESTDTC",
                            "label": "Start Date/Time of Adverse Event",
                            "name": "AESTDTC",
                            "ordinal": "19",
                            "simpleDatatype": "Char"
                        },
                        {
                            "_links": {
                                "parentDatastructure": {
                                    "href": "/mdr/adam/adam-adae-1-0/datastructures/ADAE",
                                    "title": "Adverse Event Analysis Dataset",
                                    "type": "Data Structure"
                                },
                                "parentProduct": {
                                    "href": "/mdr/adam/adam-adae-1-0",
                                    "title": "Analysis Data Model Data Structure for Adverse Event Analysis Version 1.0",
                                    "type": "Implementation Guide"
                                },
                                "parentVariableSet": {
                                    "href": "/mdr/adam/adam-adae-1-0/datastructures/ADAE/varsets/TimingVariables",
                                    "title": "Timing Variables",
                                    "type": "Variable Set"
                                },
                                "self": {
                                    "href": "/mdr/adam/adam-adae-1-0/datastructures/ADAE/variables/ASTDT",
                                    "title": "Analysis Start Date",
                                    "type": "Analysis Variable"
                                }
                            },
                            "core": "Cond",
                            "description": "Created from converting AE.AEENDTC from character ISO8601 format to numeric date format, applying imputation rules as specified in the SAP or metadata. Conditional on whether end date is pertinent for study and AE.AEENDTC is populated in SDTM.",
                            "label": "Analysis Start Date",
                            "name": "ASTDT",
                            "ordinal": "20",
                            "simpleDatatype": "Num"
                        },
                        {
                            "_links": {
                                "parentDatastructure": {
                                    "href": "/mdr/adam/adam-adae-1-0/datastructures/ADAE",
                                    "title": "Adverse Event Analysis Dataset",
                                    "type": "Data Structure"
                                },
                                "parentProduct": {
                                    "href": "/mdr/adam/adam-adae-1-0",
                                    "title": "Analysis Data Model Data Structure for Adverse Event Analysis Version 1.0",
                                    "type": "Implementation Guide"
                                },
                                "parentVariableSet": {
                                    "href": "/mdr/adam/adam-adae-1-0/datastructures/ADAE/varsets/TimingVariables",
                                    "title": "Timing Variables",
                                    "type": "Variable Set"
                                },
                                "self": {
                                    "href": "/mdr/adam/adam-adae-1-0/datastructures/ADAE/variables/ASTDTM",
                                    "title": "Analysis Start Date/Time",
                                    "type": "Analysis Variable"
                                }
                            },
                            "core": "Cond",
                            "description": "Created from converting AE.AEENDTC from character ISO8601 format to numeric date-time format, applying imputation rules as specified in the SAP or metadata. Conditional on whether end date-time is pertinent for study and AE.AEENDTC with time is populated in SDTM.",
                            "label": "Analysis Start Date/Time",
                            "name": "ASTDTM",
                            "ordinal": "21",
                            "simpleDatatype": "Num"
                        },
                        {
                            "_links": {
                                "codelist": [
                                    {
                                        "href": "/mdr/root/ct/adamct/codelists/C81223",
                                        "title": "Version-agnostic anchor resource for codelist C81223",
                                        "type": "Root Value Domain"
                                    }
                                ],
                                "parentDatastructure": {
                                    "href": "/mdr/adam/adam-adae-1-0/datastructures/ADAE",
                                    "title": "Adverse Event Analysis Dataset",
                                    "type": "Data Structure"
                                },
                                "parentProduct": {
                                    "href": "/mdr/adam/adam-adae-1-0",
                                    "title": "Analysis Data Model Data Structure for Adverse Event Analysis Version 1.0",
                                    "type": "Implementation Guide"
                                },
                                "parentVariableSet": {
                                    "href": "/mdr/adam/adam-adae-1-0/datastructures/ADAE/varsets/TimingVariables",
                                    "title": "Timing Variables",
                                    "type": "Variable Set"
                                },
                                "self": {
                                    "href": "/mdr/adam/adam-adae-1-0/datastructures/ADAE/variables/ASTDTF",
                                    "title": "Analysis Start Date Imputation Flag",
                                    "type": "Analysis Variable"
                                }
                            },
                            "codelistSubmissionValues": [
                                "DATEFL"
                            ],
                            "core": "Cond",
                            "description": "Created during conversion of AE.AEENDTC from character to numeric. Imputation flags are described in the ADaMIG V1.0 [2] General Timing Variable Convention #6. Conditional on whether any imputation is done for the end date.",
                            "label": "Analysis Start Date Imputation Flag",
                            "name": "ASTDTF",
                            "ordinal": "22",
                            "simpleDatatype": "Char"
                        },
                        {
                            "_links": {
                                "codelist": [
                                    {
                                        "href": "/mdr/root/ct/adamct/codelists/C81226",
                                        "title": "Version-agnostic anchor resource for codelist C81226",
                                        "type": "Root Value Domain"
                                    }
                                ],
                                "parentDatastructure": {
                                    "href": "/mdr/adam/adam-adae-1-0/datastructures/ADAE",
                                    "title": "Adverse Event Analysis Dataset",
                                    "type": "Data Structure"
                                },
                                "parentProduct": {
                                    "href": "/mdr/adam/adam-adae-1-0",
                                    "title": "Analysis Data Model Data Structure for Adverse Event Analysis Version 1.0",
                                    "type": "Implementation Guide"
                                },
                                "parentVariableSet": {
                                    "href": "/mdr/adam/adam-adae-1-0/datastructures/ADAE/varsets/TimingVariables",
                                    "title": "Timing Variables",
                                    "type": "Variable Set"
                                },
                                "self": {
                                    "href": "/mdr/adam/adam-adae-1-0/datastructures/ADAE/variables/ASTTMF",
                                    "title": "Analysis Start Time Imputation Flag",
                                    "type": "Analysis Variable"
                                }
                            },
                            "codelistSubmissionValues": [
                                "TIMEFL"
                            ],
                            "core": "Cond",
                            "description": "Created during conversion of AE.AEENDTC from character to numeric. Imputation flags are described in the ADaMIG V1.0 [2] General Timing Variable Convention #6. Conditional on whether any imputation is done for the end time.",
                            "label": "Analysis Start Time Imputation Flag",
                            "name": "ASTTMF",
                            "ordinal": "23",
                            "simpleDatatype": "Char"
                        },
                        {
                            "_links": {
                                "parentDatastructure": {
                                    "href": "/mdr/adam/adam-adae-1-0/datastructures/ADAE",
                                    "title": "Adverse Event Analysis Dataset",
                                    "type": "Data Structure"
                                },
                                "parentProduct": {
                                    "href": "/mdr/adam/adam-adae-1-0",
                                    "title": "Analysis Data Model Data Structure for Adverse Event Analysis Version 1.0",
                                    "type": "Implementation Guide"
                                },
                                "parentVariableSet": {
                                    "href": "/mdr/adam/adam-adae-1-0/datastructures/ADAE/varsets/TimingVariables",
                                    "title": "Timing Variables",
                                    "type": "Variable Set"
                                },
                                "self": {
                                    "href": "/mdr/adam/adam-adae-1-0/datastructures/ADAE/variables/AEENDTC",
                                    "title": "End Date/Time of Adverse Event",
                                    "type": "Analysis Variable"
                                }
                            },
                            "core": "Perm",
                            "describedValueDomain": "ISO 8601",
                            "description": "Copied from AE.AEENDTC",
                            "label": "End Date/Time of Adverse Event",
                            "name": "AEENDTC",
                            "ordinal": "24",
                            "simpleDatatype": "Char"
                        },
                        {
                            "_links": {
                                "parentDatastructure": {
                                    "href": "/mdr/adam/adam-adae-1-0/datastructures/ADAE",
                                    "title": "Adverse Event Analysis Dataset",
                                    "type": "Data Structure"
                                },
                                "parentProduct": {
                                    "href": "/mdr/adam/adam-adae-1-0",
                                    "title": "Analysis Data Model Data Structure for Adverse Event Analysis Version 1.0",
                                    "type": "Implementation Guide"
                                },
                                "parentVariableSet": {
                                    "href": "/mdr/adam/adam-adae-1-0/datastructures/ADAE/varsets/TimingVariables",
                                    "title": "Timing Variables",
                                    "type": "Variable Set"
                                },
                                "self": {
                                    "href": "/mdr/adam/adam-adae-1-0/datastructures/ADAE/variables/AENDT",
                                    "title": "Analysis End Date",
                                    "type": "Analysis Variable"
                                }
                            },
                            "core": "Cond",
                            "description": "Created from converting AE.AEENDTC from character ISO8601 format to numeric date format, applying imputation rules as specified in the SAP or metadata. Conditional on whether end date is pertinent for study and AE.AEENDTC is populated in SDTM.",
                            "label": "Analysis End Date",
                            "name": "AENDT",
                            "ordinal": "25",
                            "simpleDatatype": "Num"
                        },
                        {
                            "_links": {
                                "parentDatastructure": {
                                    "href": "/mdr/adam/adam-adae-1-0/datastructures/ADAE",
                                    "title": "Adverse Event Analysis Dataset",
                                    "type": "Data Structure"
                                },
                                "parentProduct": {
                                    "href": "/mdr/adam/adam-adae-1-0",
                                    "title": "Analysis Data Model Data Structure for Adverse Event Analysis Version 1.0",
                                    "type": "Implementation Guide"
                                },
                                "parentVariableSet": {
                                    "href": "/mdr/adam/adam-adae-1-0/datastructures/ADAE/varsets/TimingVariables",
                                    "title": "Timing Variables",
                                    "type": "Variable Set"
                                },
                                "self": {
                                    "href": "/mdr/adam/adam-adae-1-0/datastructures/ADAE/variables/AENDTM",
                                    "title": "Analysis End Date/Time",
                                    "type": "Analysis Variable"
                                }
                            },
                            "core": "Cond",
                            "description": "Created from converting AE.AEENDTC from character ISO8601 format to numeric date-time format, applying imputation rules as specified in the SAP or metadata. Conditional on whether end date-time is pertinent for study and AE.AEENDTC with time is populated in SDTM.",
                            "label": "Analysis End Date/Time",
                            "name": "AENDTM",
                            "ordinal": "26",
                            "simpleDatatype": "Num"
                        },
                        {
                            "_links": {
                                "codelist": [
                                    {
                                        "href": "/mdr/root/ct/adamct/codelists/C81223",
                                        "title": "Version-agnostic anchor resource for codelist C81223",
                                        "type": "Root Value Domain"
                                    }
                                ],
                                "parentDatastructure": {
                                    "href": "/mdr/adam/adam-adae-1-0/datastructures/ADAE",
                                    "title": "Adverse Event Analysis Dataset",
                                    "type": "Data Structure"
                                },
                                "parentProduct": {
                                    "href": "/mdr/adam/adam-adae-1-0",
                                    "title": "Analysis Data Model Data Structure for Adverse Event Analysis Version 1.0",
                                    "type": "Implementation Guide"
                                },
                                "parentVariableSet": {
                                    "href": "/mdr/adam/adam-adae-1-0/datastructures/ADAE/varsets/TimingVariables",
                                    "title": "Timing Variables",
                                    "type": "Variable Set"
                                },
                                "self": {
                                    "href": "/mdr/adam/adam-adae-1-0/datastructures/ADAE/variables/AENDTF",
                                    "title": "Analysis End Date Imputation Flag",
                                    "type": "Analysis Variable"
                                }
                            },
                            "codelistSubmissionValues": [
                                "DATEFL"
                            ],
                            "core": "Cond",
                            "description": "Created during conversion of AE.AEENDTC from character to numeric. Imputation flags are described in the ADaMIG V1.0 [2] General Timing Variable Convention #6. Conditional on whether any imputation is done for the end date.",
                            "label": "Analysis End Date Imputation Flag",
                            "name": "AENDTF",
                            "ordinal": "27",
                            "simpleDatatype": "Char"
                        },
                        {
                            "_links": {
                                "codelist": [
                                    {
                                        "href": "/mdr/root/ct/adamct/codelists/C81226",
                                        "title": "Version-agnostic anchor resource for codelist C81226",
                                        "type": "Root Value Domain"
                                    }
                                ],
                                "parentDatastructure": {
                                    "href": "/mdr/adam/adam-adae-1-0/datastructures/ADAE",
                                    "title": "Adverse Event Analysis Dataset",
                                    "type": "Data Structure"
                                },
                                "parentProduct": {
                                    "href": "/mdr/adam/adam-adae-1-0",
                                    "title": "Analysis Data Model Data Structure for Adverse Event Analysis Version 1.0",
                                    "type": "Implementation Guide"
                                },
                                "parentVariableSet": {
                                    "href": "/mdr/adam/adam-adae-1-0/datastructures/ADAE/varsets/TimingVariables",
                                    "title": "Timing Variables",
                                    "type": "Variable Set"
                                },
                                "self": {
                                    "href": "/mdr/adam/adam-adae-1-0/datastructures/ADAE/variables/AENTMF",
                                    "title": "Analysis End Time Imputation Flag",
                                    "type": "Analysis Variable"
                                }
                            },
                            "codelistSubmissionValues": [
                                "TIMEFL"
                            ],
                            "core": "Cond",
                            "description": "Created during conversion of AE.AEENDTC from character to numeric. Imputation flags are described in the ADaMIG V1.0 [2] General Timing Variable Convention #6. Conditional on whether any imputation is done for the end time.",
                            "label": "Analysis End Time Imputation Flag",
                            "name": "AENTMF",
                            "ordinal": "28",
                            "simpleDatatype": "Char"
                        },
                        {
                            "_links": {
                                "parentDatastructure": {
                                    "href": "/mdr/adam/adam-adae-1-0/datastructures/ADAE",
                                    "title": "Adverse Event Analysis Dataset",
                                    "type": "Data Structure"
                                },
                                "parentProduct": {
                                    "href": "/mdr/adam/adam-adae-1-0",
                                    "title": "Analysis Data Model Data Structure for Adverse Event Analysis Version 1.0",
                                    "type": "Implementation Guide"
                                },
                                "parentVariableSet": {
                                    "href": "/mdr/adam/adam-adae-1-0/datastructures/ADAE/varsets/TimingVariables",
                                    "title": "Timing Variables",
                                    "type": "Variable Set"
                                },
                                "self": {
                                    "href": "/mdr/adam/adam-adae-1-0/datastructures/ADAE/variables/ASTDY",
                                    "title": "Analysis Start Relative Day",
                                    "type": "Analysis Variable"
                                }
                            },
                            "core": "Cond",
                            "description": "Example derivation: ASTDT - ADSL.TRTSDT + 1 if ASTDT >= TRTSDT, else ASTDT - ADSL.TRTSDT if ASTDT < TRTSDT This variable may instead be copied from AESTDY. Conditional on whether analysis start relative day is pertinent to the study.",
                            "label": "Analysis Start Relative Day",
                            "name": "ASTDY",
                            "ordinal": "29",
                            "simpleDatatype": "Num"
                        },
                        {
                            "_links": {
                                "parentDatastructure": {
                                    "href": "/mdr/adam/adam-adae-1-0/datastructures/ADAE",
                                    "title": "Adverse Event Analysis Dataset",
                                    "type": "Data Structure"
                                },
                                "parentProduct": {
                                    "href": "/mdr/adam/adam-adae-1-0",
                                    "title": "Analysis Data Model Data Structure for Adverse Event Analysis Version 1.0",
                                    "type": "Implementation Guide"
                                },
                                "parentVariableSet": {
                                    "href": "/mdr/adam/adam-adae-1-0/datastructures/ADAE/varsets/TimingVariables",
                                    "title": "Timing Variables",
                                    "type": "Variable Set"
                                },
                                "self": {
                                    "href": "/mdr/adam/adam-adae-1-0/datastructures/ADAE/variables/AESTDY",
                                    "title": "Study Day of Start of Adverse Event",
                                    "type": "Analysis Variable"
                                }
                            },
                            "core": "Perm",
                            "description": "AE.AESTDY ASTDY may differ from AESTDY due to date imputation and the option in ADaM to use a reference date other than SDTM's RFSTDTC. Including AE.AESTDY in addition to ASTDY adds traceability.",
                            "label": "Study Day of Start of Adverse Event",
                            "name": "AESTDY",
                            "ordinal": "30",
                            "simpleDatatype": "Num"
                        },
                        {
                            "_links": {
                                "parentDatastructure": {
                                    "href": "/mdr/adam/adam-adae-1-0/datastructures/ADAE",
                                    "title": "Adverse Event Analysis Dataset",
                                    "type": "Data Structure"
                                },
                                "parentProduct": {
                                    "href": "/mdr/adam/adam-adae-1-0",
                                    "title": "Analysis Data Model Data Structure for Adverse Event Analysis Version 1.0",
                                    "type": "Implementation Guide"
                                },
                                "parentVariableSet": {
                                    "href": "/mdr/adam/adam-adae-1-0/datastructures/ADAE/varsets/TimingVariables",
                                    "title": "Timing Variables",
                                    "type": "Variable Set"
                                },
                                "self": {
                                    "href": "/mdr/adam/adam-adae-1-0/datastructures/ADAE/variables/AENDY",
                                    "title": "Analysis End Relative Day",
                                    "type": "Analysis Variable"
                                }
                            },
                            "core": "Perm",
                            "description": "Example derivation: AENDT - ADSL.TRTSDT + 1 if AENDT >= TRTSDT, else AENDT - ADSL.TRTSDT if AENDT < TRTSDT This variable may instead be copied from AEENDY",
                            "label": "Analysis End Relative Day",
                            "name": "AENDY",
                            "ordinal": "31",
                            "simpleDatatype": "Num"
                        },
                        {
                            "_links": {
                                "parentDatastructure": {
                                    "href": "/mdr/adam/adam-adae-1-0/datastructures/ADAE",
                                    "title": "Adverse Event Analysis Dataset",
                                    "type": "Data Structure"
                                },
                                "parentProduct": {
                                    "href": "/mdr/adam/adam-adae-1-0",
                                    "title": "Analysis Data Model Data Structure for Adverse Event Analysis Version 1.0",
                                    "type": "Implementation Guide"
                                },
                                "parentVariableSet": {
                                    "href": "/mdr/adam/adam-adae-1-0/datastructures/ADAE/varsets/TimingVariables",
                                    "title": "Timing Variables",
                                    "type": "Variable Set"
                                },
                                "self": {
                                    "href": "/mdr/adam/adam-adae-1-0/datastructures/ADAE/variables/AEENDY",
                                    "title": "Study Day of End of Adverse Event",
                                    "type": "Analysis Variable"
                                }
                            },
                            "core": "Perm",
                            "description": "AE.AEENDY AENDY may differ from AEENDY due to date imputation and the option in ADaM to use a reference date other than SDTM's RFSTDTC. Including AE.AEENDY in addition to AENDY adds traceability.",
                            "label": "Study Day of End of Adverse Event",
                            "name": "AEENDY",
                            "ordinal": "32",
                            "simpleDatatype": "Num"
                        },
                        {
                            "_links": {
                                "parentDatastructure": {
                                    "href": "/mdr/adam/adam-adae-1-0/datastructures/ADAE",
                                    "title": "Adverse Event Analysis Dataset",
                                    "type": "Data Structure"
                                },
                                "parentProduct": {
                                    "href": "/mdr/adam/adam-adae-1-0",
                                    "title": "Analysis Data Model Data Structure for Adverse Event Analysis Version 1.0",
                                    "type": "Implementation Guide"
                                },
                                "parentVariableSet": {
                                    "href": "/mdr/adam/adam-adae-1-0/datastructures/ADAE/varsets/TimingVariables",
                                    "title": "Timing Variables",
                                    "type": "Variable Set"
                                },
                                "self": {
                                    "href": "/mdr/adam/adam-adae-1-0/datastructures/ADAE/variables/ADURN",
                                    "title": "AE Duration (N)",
                                    "type": "Analysis Variable"
                                }
                            },
                            "core": "Perm",
                            "description": "Derive from ASTDT (or ASTDTM) and AENDT (or AENDTM)",
                            "label": "AE Duration (N)",
                            "name": "ADURN",
                            "ordinal": "33",
                            "simpleDatatype": "Num"
                        },
                        {
                            "_links": {
                                "parentDatastructure": {
                                    "href": "/mdr/adam/adam-adae-1-0/datastructures/ADAE",
                                    "title": "Adverse Event Analysis Dataset",
                                    "type": "Data Structure"
                                },
                                "parentProduct": {
                                    "href": "/mdr/adam/adam-adae-1-0",
                                    "title": "Analysis Data Model Data Structure for Adverse Event Analysis Version 1.0",
                                    "type": "Implementation Guide"
                                },
                                "parentVariableSet": {
                                    "href": "/mdr/adam/adam-adae-1-0/datastructures/ADAE/varsets/TimingVariables",
                                    "title": "Timing Variables",
                                    "type": "Variable Set"
                                },
                                "self": {
                                    "href": "/mdr/adam/adam-adae-1-0/datastructures/ADAE/variables/ADURU",
                                    "title": "AE Duration Units",
                                    "type": "Analysis Variable"
                                }
                            },
                            "core": "Cond",
                            "description": "Conditional on whether ADURN is included.",
                            "label": "AE Duration Units",
                            "name": "ADURU",
                            "ordinal": "34",
                            "simpleDatatype": "Char"
                        },
                        {
                            "_links": {
                                "parentDatastructure": {
                                    "href": "/mdr/adam/adam-adae-1-0/datastructures/ADAE",
                                    "title": "Adverse Event Analysis Dataset",
                                    "type": "Data Structure"
                                },
                                "parentProduct": {
                                    "href": "/mdr/adam/adam-adae-1-0",
                                    "title": "Analysis Data Model Data Structure for Adverse Event Analysis Version 1.0",
                                    "type": "Implementation Guide"
                                },
                                "parentVariableSet": {
                                    "href": "/mdr/adam/adam-adae-1-0/datastructures/ADAE/varsets/TimingVariables",
                                    "title": "Timing Variables",
                                    "type": "Variable Set"
                                },
                                "self": {
                                    "href": "/mdr/adam/adam-adae-1-0/datastructures/ADAE/variables/AEDUR",
                                    "title": "Duration of Adverse Event",
                                    "type": "Analysis Variable"
                                }
                            },
                            "core": "Perm",
                            "describedValueDomain": "ISO 8601",
                            "description": "AE.AEDUR Because AEDUR is a collected field and ADURN is derived, the values will often differ. Including AEDUR in addition to ADURN can add traceability.",
                            "label": "Duration of Adverse Event",
                            "name": "AEDUR",
                            "ordinal": "35",
                            "simpleDatatype": "Char"
                        },
                        {
                            "_links": {
                                "parentDatastructure": {
                                    "href": "/mdr/adam/adam-adae-1-0/datastructures/ADAE",
                                    "title": "Adverse Event Analysis Dataset",
                                    "type": "Data Structure"
                                },
                                "parentProduct": {
                                    "href": "/mdr/adam/adam-adae-1-0",
                                    "title": "Analysis Data Model Data Structure for Adverse Event Analysis Version 1.0",
                                    "type": "Implementation Guide"
                                },
                                "parentVariableSet": {
                                    "href": "/mdr/adam/adam-adae-1-0/datastructures/ADAE/varsets/TimingVariables",
                                    "title": "Timing Variables",
                                    "type": "Variable Set"
                                },
                                "self": {
                                    "href": "/mdr/adam/adam-adae-1-0/datastructures/ADAE/variables/APERIOD",
                                    "title": "Period",
                                    "type": "Analysis Variable"
                                }
                            },
                            "core": "Perm",
                            "description": "The numeric value characterizing the period to which the record belongs.",
                            "label": "Period",
                            "name": "APERIOD",
                            "ordinal": "36",
                            "simpleDatatype": "Num"
                        },
                        {
                            "_links": {
                                "parentDatastructure": {
                                    "href": "/mdr/adam/adam-adae-1-0/datastructures/ADAE",
                                    "title": "Adverse Event Analysis Dataset",
                                    "type": "Data Structure"
                                },
                                "parentProduct": {
                                    "href": "/mdr/adam/adam-adae-1-0",
                                    "title": "Analysis Data Model Data Structure for Adverse Event Analysis Version 1.0",
                                    "type": "Implementation Guide"
                                },
                                "parentVariableSet": {
                                    "href": "/mdr/adam/adam-adae-1-0/datastructures/ADAE/varsets/TimingVariables",
                                    "title": "Timing Variables",
                                    "type": "Variable Set"
                                },
                                "self": {
                                    "href": "/mdr/adam/adam-adae-1-0/datastructures/ADAE/variables/APERIODC",
                                    "title": "Period (C)",
                                    "type": "Analysis Variable"
                                }
                            },
                            "core": "Perm",
                            "description": "Text characterizing to which period the record belongs. One-to-one map to APERIOD.",
                            "label": "Period (C)",
                            "name": "APERIODC",
                            "ordinal": "37",
                            "simpleDatatype": "Char"
                        },
                        {
                            "_links": {
                                "parentDatastructure": {
                                    "href": "/mdr/adam/adam-adae-1-0/datastructures/ADAE",
                                    "title": "Adverse Event Analysis Dataset",
                                    "type": "Data Structure"
                                },
                                "parentProduct": {
                                    "href": "/mdr/adam/adam-adae-1-0",
                                    "title": "Analysis Data Model Data Structure for Adverse Event Analysis Version 1.0",
                                    "type": "Implementation Guide"
                                },
                                "parentVariableSet": {
                                    "href": "/mdr/adam/adam-adae-1-0/datastructures/ADAE/varsets/TimingVariables",
                                    "title": "Timing Variables",
                                    "type": "Variable Set"
                                },
                                "self": {
                                    "href": "/mdr/adam/adam-adae-1-0/datastructures/ADAE/variables/APHASE",
                                    "title": "Phase",
                                    "type": "Analysis Variable"
                                }
                            },
                            "core": "Perm",
                            "description": "Example derivation: If ASTDT<ADSL.TRTSDT, then APHASE='RUN-IN' Else if ASTDT > ADSL.TRTEDT + x days then APHASE='FOLLOW-UP', Else APHASE='TREATMENT'. The number x is defined by the sponsor, should be consistent with the Treatment Emergent Analysis Flag (TRTEMFL) variable described below and often incorporates the known half-life of the drug.",
                            "label": "Phase",
                            "name": "APHASE",
                            "ordinal": "38",
                            "simpleDatatype": "Char"
                        }
                    ],
                    "label": "Timing Variables",
                    "name": "Timing Variables",
                    "ordinal": "3"
                },
                {
                    "_links": {
                        "parentDatastructure": {
                            "href": "/mdr/adam/adam-adae-1-0/datastructures/ADAE",
                            "title": "Adverse Event Analysis Dataset",
                            "type": "Data Structure"
                        },
                        "parentProduct": {
                            "href": "/mdr/adam/adam-adae-1-0",
                            "title": "Analysis Data Model Data Structure for Adverse Event Analysis Version 1.0",
                            "type": "Implementation Guide"
                        },
                        "self": {
                            "href": "/mdr/adam/adam-adae-1-0/datastructures/ADAE/varsets/IndicatorVariables",
                            "title": "Indicator Variables",
                            "type": "Variable Set"
                        }
                    },
                    "analysisVariables": [
                        {
                            "_links": {
                                "parentDatastructure": {
                                    "href": "/mdr/adam/adam-adae-1-0/datastructures/ADAE",
                                    "title": "Adverse Event Analysis Dataset",
                                    "type": "Data Structure"
                                },
                                "parentProduct": {
                                    "href": "/mdr/adam/adam-adae-1-0",
                                    "title": "Analysis Data Model Data Structure for Adverse Event Analysis Version 1.0",
                                    "type": "Implementation Guide"
                                },
                                "parentVariableSet": {
                                    "href": "/mdr/adam/adam-adae-1-0/datastructures/ADAE/varsets/IndicatorVariables",
                                    "title": "Indicator Variables",
                                    "type": "Variable Set"
                                },
                                "self": {
                                    "href": "/mdr/adam/adam-adae-1-0/datastructures/ADAE/variables/TRTEMFL",
                                    "title": "Treatment Emergent Analysis Flag",
                                    "type": "Analysis Variable"
                                }
                            },
                            "core": "Cond",
                            "description": "Example derivation: If ADSL.TRTSDT<=ASTDT<=ADSL.TRTEDT + x days then TRTEMFL='Y' The number x is defined by the sponsor and often incorporates the known half-life of the drug. Variable TRTEMFL is to be used for any analysis of treatment-emergent AEs. This variable is conditional on whether the concept of treatment emergent is a key feature of the AE analyses.",
                            "label": "Treatment Emergent Analysis Flag",
                            "name": "TRTEMFL",
                            "ordinal": "39",
                            "simpleDatatype": "Char",
                            "valueList": [
                                "Y"
                            ]
                        },
                        {
                            "_links": {
                                "codelist": [
                                    {
                                        "href": "/mdr/root/ct/sdtmct/codelists/C66742",
                                        "title": "Version-agnostic anchor resource for codelist C66742",
                                        "type": "Root Value Domain"
                                    }
                                ],
                                "parentDatastructure": {
                                    "href": "/mdr/adam/adam-adae-1-0/datastructures/ADAE",
                                    "title": "Adverse Event Analysis Dataset",
                                    "type": "Data Structure"
                                },
                                "parentProduct": {
                                    "href": "/mdr/adam/adam-adae-1-0",
                                    "title": "Analysis Data Model Data Structure for Adverse Event Analysis Version 1.0",
                                    "type": "Implementation Guide"
                                },
                                "parentVariableSet": {
                                    "href": "/mdr/adam/adam-adae-1-0/datastructures/ADAE/varsets/IndicatorVariables",
                                    "title": "Indicator Variables",
                                    "type": "Variable Set"
                                },
                                "self": {
                                    "href": "/mdr/adam/adam-adae-1-0/datastructures/ADAE/variables/AETRTEM",
                                    "title": "Treatment Emergent Flag",
                                    "type": "Analysis Variable"
                                }
                            },
                            "codelistSubmissionValues": [
                                "NY"
                            ],
                            "core": "Perm",
                            "description": "SUPPAE.QVAL where QNAM='AETRTEM'. See the SDTMIG version 3.1.2 [3] for more information. TRTEMFL may differ from AETRTEM due to different definitions, date imputation, and other analysis rules. Including AETRTEM in addition to TRTEMFL will add traceability.",
                            "label": "Treatment Emergent Flag",
                            "name": "AETRTEM",
                            "ordinal": "40",
                            "simpleDatatype": "Char"
                        },
                        {
                            "_links": {
                                "parentDatastructure": {
                                    "href": "/mdr/adam/adam-adae-1-0/datastructures/ADAE",
                                    "title": "Adverse Event Analysis Dataset",
                                    "type": "Data Structure"
                                },
                                "parentProduct": {
                                    "href": "/mdr/adam/adam-adae-1-0",
                                    "title": "Analysis Data Model Data Structure for Adverse Event Analysis Version 1.0",
                                    "type": "Implementation Guide"
                                },
                                "parentVariableSet": {
                                    "href": "/mdr/adam/adam-adae-1-0/datastructures/ADAE/varsets/IndicatorVariables",
                                    "title": "Indicator Variables",
                                    "type": "Variable Set"
                                },
                                "self": {
                                    "href": "/mdr/adam/adam-adae-1-0/datastructures/ADAE/variables/ANLzzFL",
                                    "title": "Analysis Record Flag zz",
                                    "type": "Analysis Variable"
                                }
                            },
                            "core": "Cond",
                            "description": "The ANLzzFL flag is useful in many circumstances; an example is when there is more than one coding path included for analysis, in which case separate analysis flags could be used to denote primary coding path or the records used for analysis from each coding path. See the ADaMIG version 1 [2] for more information on this flag variable. This variable is conditional on whether analysis records flags are needed for analysis.",
                            "label": "Analysis Record Flag zz",
                            "name": "ANLzzFL",
                            "ordinal": "41",
                            "simpleDatatype": "Char",
                            "valueList": [
                                "Y"
                            ]
                        },
                        {
                            "_links": {
                                "parentDatastructure": {
                                    "href": "/mdr/adam/adam-adae-1-0/datastructures/ADAE",
                                    "title": "Adverse Event Analysis Dataset",
                                    "type": "Data Structure"
                                },
                                "parentProduct": {
                                    "href": "/mdr/adam/adam-adae-1-0",
                                    "title": "Analysis Data Model Data Structure for Adverse Event Analysis Version 1.0",
                                    "type": "Implementation Guide"
                                },
                                "parentVariableSet": {
                                    "href": "/mdr/adam/adam-adae-1-0/datastructures/ADAE/varsets/IndicatorVariables",
                                    "title": "Indicator Variables",
                                    "type": "Variable Set"
                                },
                                "self": {
                                    "href": "/mdr/adam/adam-adae-1-0/datastructures/ADAE/variables/PREFL",
                                    "title": "Pre-treatment Flag",
                                    "type": "Analysis Variable"
                                }
                            },
                            "core": "Cond",
                            "description": "Example derivation: If ASTDT < ADSL.TRTSDT then PREFL='Y' This variable is conditional on whether the concept of pre-treatment AEs is a feature of the study and whether used for analysis.",
                            "label": "Pre-treatment Flag",
                            "name": "PREFL",
                            "ordinal": "42",
                            "simpleDatatype": "Char",
                            "valueList": [
                                "Y"
                            ]
                        },
                        {
                            "_links": {
                                "parentDatastructure": {
                                    "href": "/mdr/adam/adam-adae-1-0/datastructures/ADAE",
                                    "title": "Adverse Event Analysis Dataset",
                                    "type": "Data Structure"
                                },
                                "parentProduct": {
                                    "href": "/mdr/adam/adam-adae-1-0",
                                    "title": "Analysis Data Model Data Structure for Adverse Event Analysis Version 1.0",
                                    "type": "Implementation Guide"
                                },
                                "parentVariableSet": {
                                    "href": "/mdr/adam/adam-adae-1-0/datastructures/ADAE/varsets/IndicatorVariables",
                                    "title": "Indicator Variables",
                                    "type": "Variable Set"
                                },
                                "self": {
                                    "href": "/mdr/adam/adam-adae-1-0/datastructures/ADAE/variables/FUPFL",
                                    "title": "Follow-up Flag",
                                    "type": "Analysis Variable"
                                }
                            },
                            "core": "Cond",
                            "description": "Example derivation: If ASTDT > ADSL.TRTEDT then FUPFL='Y' This variable is conditional on whether the concept of follow-up AEs is a feature of the study and whether used for analysis.",
                            "label": "Follow-up Flag",
                            "name": "FUPFL",
                            "ordinal": "43",
                            "simpleDatatype": "Char",
                            "valueList": [
                                "Y"
                            ]
                        }
                    ],
                    "label": "Indicator Variables",
                    "name": "Indicator Variables",
                    "ordinal": "4"
                },
                {
                    "_links": {
                        "parentDatastructure": {
                            "href": "/mdr/adam/adam-adae-1-0/datastructures/ADAE",
                            "title": "Adverse Event Analysis Dataset",
                            "type": "Data Structure"
                        },
                        "parentProduct": {
                            "href": "/mdr/adam/adam-adae-1-0",
                            "title": "Analysis Data Model Data Structure for Adverse Event Analysis Version 1.0",
                            "type": "Implementation Guide"
                        },
                        "self": {
                            "href": "/mdr/adam/adam-adae-1-0/datastructures/ADAE/varsets/OccurrenceFlagVariables",
                            "title": "Occurrence Flag Variables",
                            "type": "Variable Set"
                        }
                    },
                    "analysisVariables": [
                        {
                            "_links": {
                                "parentDatastructure": {
                                    "href": "/mdr/adam/adam-adae-1-0/datastructures/ADAE",
                                    "title": "Adverse Event Analysis Dataset",
                                    "type": "Data Structure"
                                },
                                "parentProduct": {
                                    "href": "/mdr/adam/adam-adae-1-0",
                                    "title": "Analysis Data Model Data Structure for Adverse Event Analysis Version 1.0",
                                    "type": "Implementation Guide"
                                },
                                "parentVariableSet": {
                                    "href": "/mdr/adam/adam-adae-1-0/datastructures/ADAE/varsets/OccurrenceFlagVariables",
                                    "title": "Occurrence Flag Variables",
                                    "type": "Variable Set"
                                },
                                "self": {
                                    "href": "/mdr/adam/adam-adae-1-0/datastructures/ADAE/variables/AOCCFL",
                                    "title": "1st Occurrence of Any AE Flag",
                                    "type": "Analysis Variable"
                                }
                            },
                            "core": "Perm",
                            "description": "Example derivation: Sort the data in the required order and flag the first treatment emergent record for each subject.",
                            "label": "1st Occurrence of Any AE Flag",
                            "name": "AOCCFL",
                            "ordinal": "44",
                            "simpleDatatype": "Char",
                            "valueList": [
                                "Y"
                            ]
                        },
                        {
                            "_links": {
                                "parentDatastructure": {
                                    "href": "/mdr/adam/adam-adae-1-0/datastructures/ADAE",
                                    "title": "Adverse Event Analysis Dataset",
                                    "type": "Data Structure"
                                },
                                "parentProduct": {
                                    "href": "/mdr/adam/adam-adae-1-0",
                                    "title": "Analysis Data Model Data Structure for Adverse Event Analysis Version 1.0",
                                    "type": "Implementation Guide"
                                },
                                "parentVariableSet": {
                                    "href": "/mdr/adam/adam-adae-1-0/datastructures/ADAE/varsets/OccurrenceFlagVariables",
                                    "title": "Occurrence Flag Variables",
                                    "type": "Variable Set"
                                },
                                "self": {
                                    "href": "/mdr/adam/adam-adae-1-0/datastructures/ADAE/variables/AOCCSFL",
                                    "title": "1st Occurrence of SOC Flag",
                                    "type": "Analysis Variable"
                                }
                            },
                            "core": "Perm",
                            "description": "Example derivation: Sort the data in the required order and flag the first treatment emergent record for each body system for each subject.",
                            "label": "1st Occurrence of SOC Flag",
                            "name": "AOCCSFL",
                            "ordinal": "45",
                            "simpleDatatype": "Char",
                            "valueList": [
                                "Y"
                            ]
                        },
                        {
                            "_links": {
                                "parentDatastructure": {
                                    "href": "/mdr/adam/adam-adae-1-0/datastructures/ADAE",
                                    "title": "Adverse Event Analysis Dataset",
                                    "type": "Data Structure"
                                },
                                "parentProduct": {
                                    "href": "/mdr/adam/adam-adae-1-0",
                                    "title": "Analysis Data Model Data Structure for Adverse Event Analysis Version 1.0",
                                    "type": "Implementation Guide"
                                },
                                "parentVariableSet": {
                                    "href": "/mdr/adam/adam-adae-1-0/datastructures/ADAE/varsets/OccurrenceFlagVariables",
                                    "title": "Occurrence Flag Variables",
                                    "type": "Variable Set"
                                },
                                "self": {
                                    "href": "/mdr/adam/adam-adae-1-0/datastructures/ADAE/variables/AOCCPFL",
                                    "title": "1st Occurrence of Preferred Term Flag",
                                    "type": "Analysis Variable"
                                }
                            },
                            "core": "Perm",
                            "description": "Example derivation: Sort the data in the required order and flag the first treatment emergent record for each preferred term for each subject.",
                            "label": "1st Occurrence of Preferred Term Flag",
                            "name": "AOCCPFL",
                            "ordinal": "46",
                            "simpleDatatype": "Char",
                            "valueList": [
                                "Y"
                            ]
                        },
                        {
                            "_links": {
                                "parentDatastructure": {
                                    "href": "/mdr/adam/adam-adae-1-0/datastructures/ADAE",
                                    "title": "Adverse Event Analysis Dataset",
                                    "type": "Data Structure"
                                },
                                "parentProduct": {
                                    "href": "/mdr/adam/adam-adae-1-0",
                                    "title": "Analysis Data Model Data Structure for Adverse Event Analysis Version 1.0",
                                    "type": "Implementation Guide"
                                },
                                "parentVariableSet": {
                                    "href": "/mdr/adam/adam-adae-1-0/datastructures/ADAE/varsets/OccurrenceFlagVariables",
                                    "title": "Occurrence Flag Variables",
                                    "type": "Variable Set"
                                },
                                "self": {
                                    "href": "/mdr/adam/adam-adae-1-0/datastructures/ADAE/variables/AOCCIFL",
                                    "title": "1st Max Sev./Int. Occurrence Flag",
                                    "type": "Analysis Variable"
                                }
                            },
                            "core": "Perm",
                            "description": "Example derivation: Sort the data in the required order and flag the first treatment emergent record for maximum severity for each subject.",
                            "label": "1st Max Sev./Int. Occurrence Flag",
                            "name": "AOCCIFL",
                            "ordinal": "47",
                            "simpleDatatype": "Char",
                            "valueList": [
                                "Y"
                            ]
                        },
                        {
                            "_links": {
                                "parentDatastructure": {
                                    "href": "/mdr/adam/adam-adae-1-0/datastructures/ADAE",
                                    "title": "Adverse Event Analysis Dataset",
                                    "type": "Data Structure"
                                },
                                "parentProduct": {
                                    "href": "/mdr/adam/adam-adae-1-0",
                                    "title": "Analysis Data Model Data Structure for Adverse Event Analysis Version 1.0",
                                    "type": "Implementation Guide"
                                },
                                "parentVariableSet": {
                                    "href": "/mdr/adam/adam-adae-1-0/datastructures/ADAE/varsets/OccurrenceFlagVariables",
                                    "title": "Occurrence Flag Variables",
                                    "type": "Variable Set"
                                },
                                "self": {
                                    "href": "/mdr/adam/adam-adae-1-0/datastructures/ADAE/variables/AOCCSIFL",
                                    "title": "1st Max Sev./Int. Occur Within SOC Flag",
                                    "type": "Analysis Variable"
                                }
                            },
                            "core": "Perm",
                            "description": "Example derivation: Sort the data in the required order and flag the first treatment emergent record for maximum severity within body system for each subject.",
                            "label": "1st Max Sev./Int. Occur Within SOC Flag",
                            "name": "AOCCSIFL",
                            "ordinal": "48",
                            "simpleDatatype": "Char",
                            "valueList": [
                                "Y"
                            ]
                        },
                        {
                            "_links": {
                                "parentDatastructure": {
                                    "href": "/mdr/adam/adam-adae-1-0/datastructures/ADAE",
                                    "title": "Adverse Event Analysis Dataset",
                                    "type": "Data Structure"
                                },
                                "parentProduct": {
                                    "href": "/mdr/adam/adam-adae-1-0",
                                    "title": "Analysis Data Model Data Structure for Adverse Event Analysis Version 1.0",
                                    "type": "Implementation Guide"
                                },
                                "parentVariableSet": {
                                    "href": "/mdr/adam/adam-adae-1-0/datastructures/ADAE/varsets/OccurrenceFlagVariables",
                                    "title": "Occurrence Flag Variables",
                                    "type": "Variable Set"
                                },
                                "self": {
                                    "href": "/mdr/adam/adam-adae-1-0/datastructures/ADAE/variables/AOCCPIFL",
                                    "title": "1st Max Sev./Int. Occur Within PT Flag",
                                    "type": "Analysis Variable"
                                }
                            },
                            "core": "Perm",
                            "description": "Example derivation: Sort the data in the required order and flag the first treatment emergent record for maximum severity within preferred term for each subject.",
                            "label": "1st Max Sev./Int. Occur Within PT Flag",
                            "name": "AOCCPIFL",
                            "ordinal": "49",
                            "simpleDatatype": "Char",
                            "valueList": [
                                "Y"
                            ]
                        },
                        {
                            "_links": {
                                "parentDatastructure": {
                                    "href": "/mdr/adam/adam-adae-1-0/datastructures/ADAE",
                                    "title": "Adverse Event Analysis Dataset",
                                    "type": "Data Structure"
                                },
                                "parentProduct": {
                                    "href": "/mdr/adam/adam-adae-1-0",
                                    "title": "Analysis Data Model Data Structure for Adverse Event Analysis Version 1.0",
                                    "type": "Implementation Guide"
                                },
                                "parentVariableSet": {
                                    "href": "/mdr/adam/adam-adae-1-0/datastructures/ADAE/varsets/OccurrenceFlagVariables",
                                    "title": "Occurrence Flag Variables",
                                    "type": "Variable Set"
                                },
                                "self": {
                                    "href": "/mdr/adam/adam-adae-1-0/datastructures/ADAE/variables/AOCCzzFL",
                                    "title": "1st Occurrence of ....",
                                    "type": "Analysis Variable"
                                }
                            },
                            "core": "Perm",
                            "description": "Additional flag variables as needed for analysis. Derivation rules for these flags need to be described in the metadata.",
                            "label": "1st Occurrence of ....",
                            "name": "AOCCzzFL",
                            "ordinal": "50",
                            "simpleDatatype": "Char",
                            "valueList": [
                                "Y"
                            ]
                        }
                    ],
                    "label": "Occurrence Flag Variables",
                    "name": "Occurrence Flag Variables",
                    "ordinal": "5"
                },
                {
                    "_links": {
                        "parentDatastructure": {
                            "href": "/mdr/adam/adam-adae-1-0/datastructures/ADAE",
                            "title": "Adverse Event Analysis Dataset",
                            "type": "Data Structure"
                        },
                        "parentProduct": {
                            "href": "/mdr/adam/adam-adae-1-0",
                            "title": "Analysis Data Model Data Structure for Adverse Event Analysis Version 1.0",
                            "type": "Implementation Guide"
                        },
                        "self": {
                            "href": "/mdr/adam/adam-adae-1-0/datastructures/ADAE/varsets/TreatmentVariables",
                            "title": "Treatment Variables",
                            "type": "Variable Set"
                        }
                    },
                    "analysisVariables": [
                        {
                            "_links": {
                                "parentDatastructure": {
                                    "href": "/mdr/adam/adam-adae-1-0/datastructures/ADAE",
                                    "title": "Adverse Event Analysis Dataset",
                                    "type": "Data Structure"
                                },
                                "parentProduct": {
                                    "href": "/mdr/adam/adam-adae-1-0",
                                    "title": "Analysis Data Model Data Structure for Adverse Event Analysis Version 1.0",
                                    "type": "Implementation Guide"
                                },
                                "parentVariableSet": {
                                    "href": "/mdr/adam/adam-adae-1-0/datastructures/ADAE/varsets/TreatmentVariables",
                                    "title": "Treatment Variables",
                                    "type": "Variable Set"
                                },
                                "self": {
                                    "href": "/mdr/adam/adam-adae-1-0/datastructures/ADAE/variables/DOSEAEON",
                                    "title": "Study Drug Dose at AE Onset",
                                    "type": "Analysis Variable"
                                }
                            },
                            "core": "Perm",
                            "description": "Study drug dose a subject took when adverse event occurred. Example derivation: Obtained from EX.EXDOSE where AESTDTC falls between the values of EX.EXSTDTC and EX.EXENDTC",
                            "label": "Study Drug Dose at AE Onset",
                            "name": "DOSEAEON",
                            "ordinal": "51",
                            "simpleDatatype": "Num"
                        },
                        {
                            "_links": {
                                "parentDatastructure": {
                                    "href": "/mdr/adam/adam-adae-1-0/datastructures/ADAE",
                                    "title": "Adverse Event Analysis Dataset",
                                    "type": "Data Structure"
                                },
                                "parentProduct": {
                                    "href": "/mdr/adam/adam-adae-1-0",
                                    "title": "Analysis Data Model Data Structure for Adverse Event Analysis Version 1.0",
                                    "type": "Implementation Guide"
                                },
                                "parentVariableSet": {
                                    "href": "/mdr/adam/adam-adae-1-0/datastructures/ADAE/varsets/TreatmentVariables",
                                    "title": "Treatment Variables",
                                    "type": "Variable Set"
                                },
                                "self": {
                                    "href": "/mdr/adam/adam-adae-1-0/datastructures/ADAE/variables/DOSAEONU",
                                    "title": "Study Drug Dose at AE Onset Units",
                                    "type": "Analysis Variable"
                                }
                            },
                            "core": "Cond",
                            "description": "Conditional on whether DOSEAEON is included.",
                            "label": "Study Drug Dose at AE Onset Units",
                            "name": "DOSAEONU",
                            "ordinal": "52",
                            "simpleDatatype": "Char"
                        },
                        {
                            "_links": {
                                "parentDatastructure": {
                                    "href": "/mdr/adam/adam-adae-1-0/datastructures/ADAE",
                                    "title": "Adverse Event Analysis Dataset",
                                    "type": "Data Structure"
                                },
                                "parentProduct": {
                                    "href": "/mdr/adam/adam-adae-1-0",
                                    "title": "Analysis Data Model Data Structure for Adverse Event Analysis Version 1.0",
                                    "type": "Implementation Guide"
                                },
                                "parentVariableSet": {
                                    "href": "/mdr/adam/adam-adae-1-0/datastructures/ADAE/varsets/TreatmentVariables",
                                    "title": "Treatment Variables",
                                    "type": "Variable Set"
                                },
                                "self": {
                                    "href": "/mdr/adam/adam-adae-1-0/datastructures/ADAE/variables/DOSECUM",
                                    "title": "Cumulative Study Drug Dose",
                                    "type": "Analysis Variable"
                                }
                            },
                            "core": "Perm",
                            "description": "Cumulative study drug dose at the start of the AE.",
                            "label": "Cumulative Study Drug Dose",
                            "name": "DOSECUM",
                            "ordinal": "53",
                            "simpleDatatype": "Num"
                        },
                        {
                            "_links": {
                                "parentDatastructure": {
                                    "href": "/mdr/adam/adam-adae-1-0/datastructures/ADAE",
                                    "title": "Adverse Event Analysis Dataset",
                                    "type": "Data Structure"
                                },
                                "parentProduct": {
                                    "href": "/mdr/adam/adam-adae-1-0",
                                    "title": "Analysis Data Model Data Structure for Adverse Event Analysis Version 1.0",
                                    "type": "Implementation Guide"
                                },
                                "parentVariableSet": {
                                    "href": "/mdr/adam/adam-adae-1-0/datastructures/ADAE/varsets/TreatmentVariables",
                                    "title": "Treatment Variables",
                                    "type": "Variable Set"
                                },
                                "self": {
                                    "href": "/mdr/adam/adam-adae-1-0/datastructures/ADAE/variables/DOSECUMU",
                                    "title": "Cumulative Study Drug Dose Units",
                                    "type": "Analysis Variable"
                                }
                            },
                            "core": "Cond",
                            "description": "Conditional on whether DOSECUM is included.",
                            "label": "Cumulative Study Drug Dose Units",
                            "name": "DOSECUMU",
                            "ordinal": "54",
                            "simpleDatatype": "Char"
                        }
                    ],
                    "label": "Treatment Variables",
                    "name": "Treatment Variables",
                    "ordinal": "6"
                },
                {
                    "_links": {
                        "parentDatastructure": {
                            "href": "/mdr/adam/adam-adae-1-0/datastructures/ADAE",
                            "title": "Adverse Event Analysis Dataset",
                            "type": "Data Structure"
                        },
                        "parentProduct": {
                            "href": "/mdr/adam/adam-adae-1-0",
                            "title": "Analysis Data Model Data Structure for Adverse Event Analysis Version 1.0",
                            "type": "Implementation Guide"
                        },
                        "self": {
                            "href": "/mdr/adam/adam-adae-1-0/datastructures/ADAE/varsets/DescriptiveVariables",
                            "title": "Descriptive Variables",
                            "type": "Variable Set"
                        }
                    },
                    "analysisVariables": [
                        {
                            "_links": {
                                "codelist": [
                                    {
                                        "href": "/mdr/root/ct/sdtmct/codelists/C66742",
                                        "title": "Version-agnostic anchor resource for codelist C66742",
                                        "type": "Root Value Domain"
                                    }
                                ],
                                "parentDatastructure": {
                                    "href": "/mdr/adam/adam-adae-1-0/datastructures/ADAE",
                                    "title": "Adverse Event Analysis Dataset",
                                    "type": "Data Structure"
                                },
                                "parentProduct": {
                                    "href": "/mdr/adam/adam-adae-1-0",
                                    "title": "Analysis Data Model Data Structure for Adverse Event Analysis Version 1.0",
                                    "type": "Implementation Guide"
                                },
                                "parentVariableSet": {
                                    "href": "/mdr/adam/adam-adae-1-0/datastructures/ADAE/varsets/DescriptiveVariables",
                                    "title": "Descriptive Variables",
                                    "type": "Variable Set"
                                },
                                "self": {
                                    "href": "/mdr/adam/adam-adae-1-0/datastructures/ADAE/variables/AESER",
                                    "title": "Serious Event",
                                    "type": "Analysis Variable"
                                }
                            },
                            "codelistSubmissionValues": [
                                "NY"
                            ],
                            "core": "Req",
                            "description": "AE.AESER",
                            "label": "Serious Event",
                            "name": "AESER",
                            "ordinal": "55",
                            "simpleDatatype": "Char"
                        },
                        {
                            "_links": {
                                "codelist": [
                                    {
                                        "href": "/mdr/root/ct/sdtmct/codelists/C66769",
                                        "title": "Version-agnostic anchor resource for codelist C66769",
                                        "type": "Root Value Domain"
                                    }
                                ],
                                "parentDatastructure": {
                                    "href": "/mdr/adam/adam-adae-1-0/datastructures/ADAE",
                                    "title": "Adverse Event Analysis Dataset",
                                    "type": "Data Structure"
                                },
                                "parentProduct": {
                                    "href": "/mdr/adam/adam-adae-1-0",
                                    "title": "Analysis Data Model Data Structure for Adverse Event Analysis Version 1.0",
                                    "type": "Implementation Guide"
                                },
                                "parentVariableSet": {
                                    "href": "/mdr/adam/adam-adae-1-0/datastructures/ADAE/varsets/DescriptiveVariables",
                                    "title": "Descriptive Variables",
                                    "type": "Variable Set"
                                },
                                "self": {
                                    "href": "/mdr/adam/adam-adae-1-0/datastructures/ADAE/variables/AESEV",
                                    "title": "Severity/Intensity",
                                    "type": "Analysis Variable"
                                }
                            },
                            "codelistSubmissionValues": [
                                "AESEV"
                            ],
                            "core": "Perm",
                            "description": "AE.AESEV",
                            "label": "Severity/Intensity",
                            "name": "AESEV",
                            "ordinal": "56",
                            "simpleDatatype": "Char"
                        },
                        {
                            "_links": {
                                "parentDatastructure": {
                                    "href": "/mdr/adam/adam-adae-1-0/datastructures/ADAE",
                                    "title": "Adverse Event Analysis Dataset",
                                    "type": "Data Structure"
                                },
                                "parentProduct": {
                                    "href": "/mdr/adam/adam-adae-1-0",
                                    "title": "Analysis Data Model Data Structure for Adverse Event Analysis Version 1.0",
                                    "type": "Implementation Guide"
                                },
                                "parentVariableSet": {
                                    "href": "/mdr/adam/adam-adae-1-0/datastructures/ADAE/varsets/DescriptiveVariables",
                                    "title": "Descriptive Variables",
                                    "type": "Variable Set"
                                },
                                "self": {
                                    "href": "/mdr/adam/adam-adae-1-0/datastructures/ADAE/variables/AESEVN",
                                    "title": "Severity/Intensity (N)",
                                    "type": "Analysis Variable"
                                }
                            },
                            "core": "Perm",
                            "description": "Code AESEV to numeric Low intensity should correspond to low value",
                            "label": "Severity/Intensity (N)",
                            "name": "AESEVN",
                            "ordinal": "57",
                            "simpleDatatype": "Num",
                            "valueList": [
                                "1",
                                "2",
                                "3"
                            ]
                        },
                        {
                            "_links": {
                                "parentDatastructure": {
                                    "href": "/mdr/adam/adam-adae-1-0/datastructures/ADAE",
                                    "title": "Adverse Event Analysis Dataset",
                                    "type": "Data Structure"
                                },
                                "parentProduct": {
                                    "href": "/mdr/adam/adam-adae-1-0",
                                    "title": "Analysis Data Model Data Structure for Adverse Event Analysis Version 1.0",
                                    "type": "Implementation Guide"
                                },
                                "parentVariableSet": {
                                    "href": "/mdr/adam/adam-adae-1-0/datastructures/ADAE/varsets/DescriptiveVariables",
                                    "title": "Descriptive Variables",
                                    "type": "Variable Set"
                                },
                                "self": {
                                    "href": "/mdr/adam/adam-adae-1-0/datastructures/ADAE/variables/ASEV",
                                    "title": "Analysis Severity/Intensity",
                                    "type": "Analysis Variable"
                                }
                            },
                            "core": "Perm",
                            "description": "Apply imputation rules for missing severity of adverse events as specified in the SAP or metadata. May change case of text, such as from all uppercase in AESEV to mixed case in ASEV.",
                            "label": "Analysis Severity/Intensity",
                            "name": "ASEV",
                            "ordinal": "58",
                            "simpleDatatype": "Char"
                        },
                        {
                            "_links": {
                                "parentDatastructure": {
                                    "href": "/mdr/adam/adam-adae-1-0/datastructures/ADAE",
                                    "title": "Adverse Event Analysis Dataset",
                                    "type": "Data Structure"
                                },
                                "parentProduct": {
                                    "href": "/mdr/adam/adam-adae-1-0",
                                    "title": "Analysis Data Model Data Structure for Adverse Event Analysis Version 1.0",
                                    "type": "Implementation Guide"
                                },
                                "parentVariableSet": {
                                    "href": "/mdr/adam/adam-adae-1-0/datastructures/ADAE/varsets/DescriptiveVariables",
                                    "title": "Descriptive Variables",
                                    "type": "Variable Set"
                                },
                                "self": {
                                    "href": "/mdr/adam/adam-adae-1-0/datastructures/ADAE/variables/ASEVN",
                                    "title": "Analysis Severity/Intensity (N)",
                                    "type": "Analysis Variable"
                                }
                            },
                            "core": "Perm",
                            "description": "Code ASEV to numeric Low intensity should correspond to low value",
                            "label": "Analysis Severity/Intensity (N)",
                            "name": "ASEVN",
                            "ordinal": "59",
                            "simpleDatatype": "Num",
                            "valueList": [
                                "1",
                                "2",
                                "3"
                            ]
                        },
                        {
                            "_links": {
                                "parentDatastructure": {
                                    "href": "/mdr/adam/adam-adae-1-0/datastructures/ADAE",
                                    "title": "Adverse Event Analysis Dataset",
                                    "type": "Data Structure"
                                },
                                "parentProduct": {
                                    "href": "/mdr/adam/adam-adae-1-0",
                                    "title": "Analysis Data Model Data Structure for Adverse Event Analysis Version 1.0",
                                    "type": "Implementation Guide"
                                },
                                "parentVariableSet": {
                                    "href": "/mdr/adam/adam-adae-1-0/datastructures/ADAE/varsets/DescriptiveVariables",
                                    "title": "Descriptive Variables",
                                    "type": "Variable Set"
                                },
                                "self": {
                                    "href": "/mdr/adam/adam-adae-1-0/datastructures/ADAE/variables/SEVGRy",
                                    "title": "Pooled Severity Group y",
                                    "type": "Analysis Variable"
                                }
                            },
                            "core": "Perm",
                            "description": "Pooled grouping of AE Severity for analysis (e.g. mild/moderate or severe).",
                            "label": "Pooled Severity Group y",
                            "name": "SEVGRy",
                            "ordinal": "60",
                            "simpleDatatype": "Char"
                        },
                        {
                            "_links": {
                                "parentDatastructure": {
                                    "href": "/mdr/adam/adam-adae-1-0/datastructures/ADAE",
                                    "title": "Adverse Event Analysis Dataset",
                                    "type": "Data Structure"
                                },
                                "parentProduct": {
                                    "href": "/mdr/adam/adam-adae-1-0",
                                    "title": "Analysis Data Model Data Structure for Adverse Event Analysis Version 1.0",
                                    "type": "Implementation Guide"
                                },
                                "parentVariableSet": {
                                    "href": "/mdr/adam/adam-adae-1-0/datastructures/ADAE/varsets/DescriptiveVariables",
                                    "title": "Descriptive Variables",
                                    "type": "Variable Set"
                                },
                                "self": {
                                    "href": "/mdr/adam/adam-adae-1-0/datastructures/ADAE/variables/SEVGRyN",
                                    "title": "Pooled Severity Group y (N)",
                                    "type": "Analysis Variable"
                                }
                            },
                            "core": "Perm",
                            "description": "Code SEVGRy to numeric Low intensity should correspond to low value",
                            "label": "Pooled Severity Group y (N)",
                            "name": "SEVGRyN",
                            "ordinal": "61",
                            "simpleDatatype": "Num"
                        },
                        {
                            "_links": {
                                "parentDatastructure": {
                                    "href": "/mdr/adam/adam-adae-1-0/datastructures/ADAE",
                                    "title": "Adverse Event Analysis Dataset",
                                    "type": "Data Structure"
                                },
                                "parentProduct": {
                                    "href": "/mdr/adam/adam-adae-1-0",
                                    "title": "Analysis Data Model Data Structure for Adverse Event Analysis Version 1.0",
                                    "type": "Implementation Guide"
                                },
                                "parentVariableSet": {
                                    "href": "/mdr/adam/adam-adae-1-0/datastructures/ADAE/varsets/DescriptiveVariables",
                                    "title": "Descriptive Variables",
                                    "type": "Variable Set"
                                },
                                "self": {
                                    "href": "/mdr/adam/adam-adae-1-0/datastructures/ADAE/variables/AEREL",
                                    "title": "Causality",
                                    "type": "Analysis Variable"
                                }
                            },
                            "core": "Perm",
                            "description": "AE.AEREL",
                            "label": "Causality",
                            "name": "AEREL",
                            "ordinal": "62",
                            "simpleDatatype": "Char"
                        },
                        {
                            "_links": {
                                "parentDatastructure": {
                                    "href": "/mdr/adam/adam-adae-1-0/datastructures/ADAE",
                                    "title": "Adverse Event Analysis Dataset",
                                    "type": "Data Structure"
                                },
                                "parentProduct": {
                                    "href": "/mdr/adam/adam-adae-1-0",
                                    "title": "Analysis Data Model Data Structure for Adverse Event Analysis Version 1.0",
                                    "type": "Implementation Guide"
                                },
                                "parentVariableSet": {
                                    "href": "/mdr/adam/adam-adae-1-0/datastructures/ADAE/varsets/DescriptiveVariables",
                                    "title": "Descriptive Variables",
                                    "type": "Variable Set"
                                },
                                "self": {
                                    "href": "/mdr/adam/adam-adae-1-0/datastructures/ADAE/variables/AERELN",
                                    "title": "Causality (N)",
                                    "type": "Analysis Variable"
                                }
                            },
                            "core": "Perm",
                            "description": "Code AE.AEREL to numeric Low relation should correspond to low value",
                            "label": "Causality (N)",
                            "name": "AERELN",
                            "ordinal": "63",
                            "simpleDatatype": "Num"
                        },
                        {
                            "_links": {
                                "parentDatastructure": {
                                    "href": "/mdr/adam/adam-adae-1-0/datastructures/ADAE",
                                    "title": "Adverse Event Analysis Dataset",
                                    "type": "Data Structure"
                                },
                                "parentProduct": {
                                    "href": "/mdr/adam/adam-adae-1-0",
                                    "title": "Analysis Data Model Data Structure for Adverse Event Analysis Version 1.0",
                                    "type": "Implementation Guide"
                                },
                                "parentVariableSet": {
                                    "href": "/mdr/adam/adam-adae-1-0/datastructures/ADAE/varsets/DescriptiveVariables",
                                    "title": "Descriptive Variables",
                                    "type": "Variable Set"
                                },
                                "self": {
                                    "href": "/mdr/adam/adam-adae-1-0/datastructures/ADAE/variables/AREL",
                                    "title": "Analysis Causality",
                                    "type": "Analysis Variable"
                                }
                            },
                            "core": "Perm",
                            "description": "Apply imputation rules for missing causality of study drug as specified in the SAP or metadata. May change case of text, such as from all uppercase in AEREL to mixed case in AREL.",
                            "label": "Analysis Causality",
                            "name": "AREL",
                            "ordinal": "64",
                            "simpleDatatype": "Char"
                        },
                        {
                            "_links": {
                                "parentDatastructure": {
                                    "href": "/mdr/adam/adam-adae-1-0/datastructures/ADAE",
                                    "title": "Adverse Event Analysis Dataset",
                                    "type": "Data Structure"
                                },
                                "parentProduct": {
                                    "href": "/mdr/adam/adam-adae-1-0",
                                    "title": "Analysis Data Model Data Structure for Adverse Event Analysis Version 1.0",
                                    "type": "Implementation Guide"
                                },
                                "parentVariableSet": {
                                    "href": "/mdr/adam/adam-adae-1-0/datastructures/ADAE/varsets/DescriptiveVariables",
                                    "title": "Descriptive Variables",
                                    "type": "Variable Set"
                                },
                                "self": {
                                    "href": "/mdr/adam/adam-adae-1-0/datastructures/ADAE/variables/ARELN",
                                    "title": "Analysis Causality (N)",
                                    "type": "Analysis Variable"
                                }
                            },
                            "core": "Perm",
                            "description": "Code AREL to numeric",
                            "label": "Analysis Causality (N)",
                            "name": "ARELN",
                            "ordinal": "65",
                            "simpleDatatype": "Num"
                        },
                        {
                            "_links": {
                                "parentDatastructure": {
                                    "href": "/mdr/adam/adam-adae-1-0/datastructures/ADAE",
                                    "title": "Adverse Event Analysis Dataset",
                                    "type": "Data Structure"
                                },
                                "parentProduct": {
                                    "href": "/mdr/adam/adam-adae-1-0",
                                    "title": "Analysis Data Model Data Structure for Adverse Event Analysis Version 1.0",
                                    "type": "Implementation Guide"
                                },
                                "parentVariableSet": {
                                    "href": "/mdr/adam/adam-adae-1-0/datastructures/ADAE/varsets/DescriptiveVariables",
                                    "title": "Descriptive Variables",
                                    "type": "Variable Set"
                                },
                                "self": {
                                    "href": "/mdr/adam/adam-adae-1-0/datastructures/ADAE/variables/RELGRy",
                                    "title": "Pooled Causality Group y",
                                    "type": "Analysis Variable"
                                }
                            },
                            "core": "Perm",
                            "description": "Pooled grouping of causality of study drug for analysis (e.g. related, Not related).",
                            "label": "Pooled Causality Group y",
                            "name": "RELGRy",
                            "ordinal": "66",
                            "simpleDatatype": "Char"
                        },
                        {
                            "_links": {
                                "parentDatastructure": {
                                    "href": "/mdr/adam/adam-adae-1-0/datastructures/ADAE",
                                    "title": "Adverse Event Analysis Dataset",
                                    "type": "Data Structure"
                                },
                                "parentProduct": {
                                    "href": "/mdr/adam/adam-adae-1-0",
                                    "title": "Analysis Data Model Data Structure for Adverse Event Analysis Version 1.0",
                                    "type": "Implementation Guide"
                                },
                                "parentVariableSet": {
                                    "href": "/mdr/adam/adam-adae-1-0/datastructures/ADAE/varsets/DescriptiveVariables",
                                    "title": "Descriptive Variables",
                                    "type": "Variable Set"
                                },
                                "self": {
                                    "href": "/mdr/adam/adam-adae-1-0/datastructures/ADAE/variables/RELGRyN",
                                    "title": "Pooled Causality Group y (N)",
                                    "type": "Analysis Variable"
                                }
                            },
                            "core": "Perm",
                            "description": "Code of RELGRy to numeric Low intensity should correspond to low value",
                            "label": "Pooled Causality Group y (N)",
                            "name": "RELGRyN",
                            "ordinal": "67",
                            "simpleDatatype": "Num"
                        },
                        {
                            "_links": {
                                "parentDatastructure": {
                                    "href": "/mdr/adam/adam-adae-1-0/datastructures/ADAE",
                                    "title": "Adverse Event Analysis Dataset",
                                    "type": "Data Structure"
                                },
                                "parentProduct": {
                                    "href": "/mdr/adam/adam-adae-1-0",
                                    "title": "Analysis Data Model Data Structure for Adverse Event Analysis Version 1.0",
                                    "type": "Implementation Guide"
                                },
                                "parentVariableSet": {
                                    "href": "/mdr/adam/adam-adae-1-0/datastructures/ADAE/varsets/DescriptiveVariables",
                                    "title": "Descriptive Variables",
                                    "type": "Variable Set"
                                },
                                "self": {
                                    "href": "/mdr/adam/adam-adae-1-0/datastructures/ADAE/variables/AETOXGR",
                                    "title": "Standard Toxicity Grade",
                                    "type": "Analysis Variable"
                                }
                            },
                            "core": "Perm",
                            "description": "AE.AETOXGR",
                            "label": "Standard Toxicity Grade",
                            "name": "AETOXGR",
                            "ordinal": "68",
                            "simpleDatatype": "Char"
                        },
                        {
                            "_links": {
                                "parentDatastructure": {
                                    "href": "/mdr/adam/adam-adae-1-0/datastructures/ADAE",
                                    "title": "Adverse Event Analysis Dataset",
                                    "type": "Data Structure"
                                },
                                "parentProduct": {
                                    "href": "/mdr/adam/adam-adae-1-0",
                                    "title": "Analysis Data Model Data Structure for Adverse Event Analysis Version 1.0",
                                    "type": "Implementation Guide"
                                },
                                "parentVariableSet": {
                                    "href": "/mdr/adam/adam-adae-1-0/datastructures/ADAE/varsets/DescriptiveVariables",
                                    "title": "Descriptive Variables",
                                    "type": "Variable Set"
                                },
                                "self": {
                                    "href": "/mdr/adam/adam-adae-1-0/datastructures/ADAE/variables/AETOXGRN",
                                    "title": "Standard Toxicity Grade (N)",
                                    "type": "Analysis Variable"
                                }
                            },
                            "core": "Perm",
                            "description": "Code AETOXGR to numeric Low toxicity should correspond to low value",
                            "label": "Standard Toxicity Grade (N)",
                            "name": "AETOXGRN",
                            "ordinal": "69",
                            "simpleDatatype": "Num"
                        },
                        {
                            "_links": {
                                "parentDatastructure": {
                                    "href": "/mdr/adam/adam-adae-1-0/datastructures/ADAE",
                                    "title": "Adverse Event Analysis Dataset",
                                    "type": "Data Structure"
                                },
                                "parentProduct": {
                                    "href": "/mdr/adam/adam-adae-1-0",
                                    "title": "Analysis Data Model Data Structure for Adverse Event Analysis Version 1.0",
                                    "type": "Implementation Guide"
                                },
                                "parentVariableSet": {
                                    "href": "/mdr/adam/adam-adae-1-0/datastructures/ADAE/varsets/DescriptiveVariables",
                                    "title": "Descriptive Variables",
                                    "type": "Variable Set"
                                },
                                "self": {
                                    "href": "/mdr/adam/adam-adae-1-0/datastructures/ADAE/variables/ATOXGR",
                                    "title": "Analysis Toxicity Grade",
                                    "type": "Analysis Variable"
                                }
                            },
                            "core": "Perm",
                            "description": "Toxicity grade for analysis. May be based on AETOXGR or an imputed or assigned value. May change case of text, such as from all uppercase in AETOXGR to mixed case in ATOXGR.",
                            "label": "Analysis Toxicity Grade",
                            "name": "ATOXGR",
                            "ordinal": "70",
                            "simpleDatatype": "Char"
                        },
                        {
                            "_links": {
                                "parentDatastructure": {
                                    "href": "/mdr/adam/adam-adae-1-0/datastructures/ADAE",
                                    "title": "Adverse Event Analysis Dataset",
                                    "type": "Data Structure"
                                },
                                "parentProduct": {
                                    "href": "/mdr/adam/adam-adae-1-0",
                                    "title": "Analysis Data Model Data Structure for Adverse Event Analysis Version 1.0",
                                    "type": "Implementation Guide"
                                },
                                "parentVariableSet": {
                                    "href": "/mdr/adam/adam-adae-1-0/datastructures/ADAE/varsets/DescriptiveVariables",
                                    "title": "Descriptive Variables",
                                    "type": "Variable Set"
                                },
                                "self": {
                                    "href": "/mdr/adam/adam-adae-1-0/datastructures/ADAE/variables/ATOXGRN",
                                    "title": "Analysis Toxicity Grade (N)",
                                    "type": "Analysis Variable"
                                }
                            },
                            "core": "Perm",
                            "description": "Code ATOXGR to numeric Low toxicity should correspond to low value",
                            "label": "Analysis Toxicity Grade (N)",
                            "name": "ATOXGRN",
                            "ordinal": "71",
                            "simpleDatatype": "Num"
                        },
                        {
                            "_links": {
                                "parentDatastructure": {
                                    "href": "/mdr/adam/adam-adae-1-0/datastructures/ADAE",
                                    "title": "Adverse Event Analysis Dataset",
                                    "type": "Data Structure"
                                },
                                "parentProduct": {
                                    "href": "/mdr/adam/adam-adae-1-0",
                                    "title": "Analysis Data Model Data Structure for Adverse Event Analysis Version 1.0",
                                    "type": "Implementation Guide"
                                },
                                "parentVariableSet": {
                                    "href": "/mdr/adam/adam-adae-1-0/datastructures/ADAE/varsets/DescriptiveVariables",
                                    "title": "Descriptive Variables",
                                    "type": "Variable Set"
                                },
                                "self": {
                                    "href": "/mdr/adam/adam-adae-1-0/datastructures/ADAE/variables/TOXGGRy",
                                    "title": "Pooled Toxicity Grade Group y",
                                    "type": "Analysis Variable"
                                }
                            },
                            "core": "Perm",
                            "description": "Pooled grouping of toxicity grade for analysis.",
                            "label": "Pooled Toxicity Grade Group y",
                            "name": "TOXGGRy",
                            "ordinal": "72",
                            "simpleDatatype": "Char"
                        },
                        {
                            "_links": {
                                "parentDatastructure": {
                                    "href": "/mdr/adam/adam-adae-1-0/datastructures/ADAE",
                                    "title": "Adverse Event Analysis Dataset",
                                    "type": "Data Structure"
                                },
                                "parentProduct": {
                                    "href": "/mdr/adam/adam-adae-1-0",
                                    "title": "Analysis Data Model Data Structure for Adverse Event Analysis Version 1.0",
                                    "type": "Implementation Guide"
                                },
                                "parentVariableSet": {
                                    "href": "/mdr/adam/adam-adae-1-0/datastructures/ADAE/varsets/DescriptiveVariables",
                                    "title": "Descriptive Variables",
                                    "type": "Variable Set"
                                },
                                "self": {
                                    "href": "/mdr/adam/adam-adae-1-0/datastructures/ADAE/variables/TOXGGRyN",
                                    "title": "Pooled Toxicity Grade y (N)",
                                    "type": "Analysis Variable"
                                }
                            },
                            "core": "Perm",
                            "description": "Code of TOXGGRy to numeric Low toxicity should correspond to low value",
                            "label": "Pooled Toxicity Grade y (N)",
                            "name": "TOXGGRyN",
                            "ordinal": "73",
                            "simpleDatatype": "Num"
                        },
                        {
                            "_links": {
                                "codelist": [
                                    {
                                        "href": "/mdr/root/ct/sdtmct/codelists/C66767",
                                        "title": "Version-agnostic anchor resource for codelist C66767",
                                        "type": "Root Value Domain"
                                    }
                                ],
                                "parentDatastructure": {
                                    "href": "/mdr/adam/adam-adae-1-0/datastructures/ADAE",
                                    "title": "Adverse Event Analysis Dataset",
                                    "type": "Data Structure"
                                },
                                "parentProduct": {
                                    "href": "/mdr/adam/adam-adae-1-0",
                                    "title": "Analysis Data Model Data Structure for Adverse Event Analysis Version 1.0",
                                    "type": "Implementation Guide"
                                },
                                "parentVariableSet": {
                                    "href": "/mdr/adam/adam-adae-1-0/datastructures/ADAE/varsets/DescriptiveVariables",
                                    "title": "Descriptive Variables",
                                    "type": "Variable Set"
                                },
                                "self": {
                                    "href": "/mdr/adam/adam-adae-1-0/datastructures/ADAE/variables/AEACN",
                                    "title": "Action Taken with Study Treatment",
                                    "type": "Analysis Variable"
                                }
                            },
                            "codelistSubmissionValues": [
                                "ACN"
                            ],
                            "core": "Perm",
                            "description": "AE.AEACN",
                            "label": "Action Taken with Study Treatment",
                            "name": "AEACN",
                            "ordinal": "74",
                            "simpleDatatype": "Char"
                        }
                    ],
                    "label": "Descriptive Variables",
                    "name": "Descriptive Variables",
                    "ordinal": "7"
                },
                {
                    "_links": {
                        "parentDatastructure": {
                            "href": "/mdr/adam/adam-adae-1-0/datastructures/ADAE",
                            "title": "Adverse Event Analysis Dataset",
                            "type": "Data Structure"
                        },
                        "parentProduct": {
                            "href": "/mdr/adam/adam-adae-1-0",
                            "title": "Analysis Data Model Data Structure for Adverse Event Analysis Version 1.0",
                            "type": "Implementation Guide"
                        },
                        "self": {
                            "href": "/mdr/adam/adam-adae-1-0/datastructures/ADAE/varsets/StandardizedMedDRAQueryVariables",
                            "title": "Standardized MedDRA Query Variables",
                            "type": "Variable Set"
                        }
                    },
                    "analysisVariables": [
                        {
                            "_links": {
                                "parentDatastructure": {
                                    "href": "/mdr/adam/adam-adae-1-0/datastructures/ADAE",
                                    "title": "Adverse Event Analysis Dataset",
                                    "type": "Data Structure"
                                },
                                "parentProduct": {
                                    "href": "/mdr/adam/adam-adae-1-0",
                                    "title": "Analysis Data Model Data Structure for Adverse Event Analysis Version 1.0",
                                    "type": "Implementation Guide"
                                },
                                "parentVariableSet": {
                                    "href": "/mdr/adam/adam-adae-1-0/datastructures/ADAE/varsets/StandardizedMedDRAQueryVariables",
                                    "title": "Standardized MedDRA Query Variables",
                                    "type": "Variable Set"
                                },
                                "self": {
                                    "href": "/mdr/adam/adam-adae-1-0/datastructures/ADAE/variables/SMQzzNAM",
                                    "title": "SMQ zz Name",
                                    "type": "Analysis Variable"
                                }
                            },
                            "core": "Cond",
                            "description": "The standardized MedDRA query's name. Would be blank for terms that are not in the SMQ. Therefore this variable could be blank if none of the terms within the SMQ are present in the dataset. Conditional on whether SMQ analysis is done.",
                            "label": "SMQ zz Name",
                            "name": "SMQzzNAM",
                            "ordinal": "75",
                            "simpleDatatype": "Char"
                        },
                        {
                            "_links": {
                                "parentDatastructure": {
                                    "href": "/mdr/adam/adam-adae-1-0/datastructures/ADAE",
                                    "title": "Adverse Event Analysis Dataset",
                                    "type": "Data Structure"
                                },
                                "parentProduct": {
                                    "href": "/mdr/adam/adam-adae-1-0",
                                    "title": "Analysis Data Model Data Structure for Adverse Event Analysis Version 1.0",
                                    "type": "Implementation Guide"
                                },
                                "parentVariableSet": {
                                    "href": "/mdr/adam/adam-adae-1-0/datastructures/ADAE/varsets/StandardizedMedDRAQueryVariables",
                                    "title": "Standardized MedDRA Query Variables",
                                    "type": "Variable Set"
                                },
                                "self": {
                                    "href": "/mdr/adam/adam-adae-1-0/datastructures/ADAE/variables/SMQzzCD",
                                    "title": "SMQ zz Code",
                                    "type": "Analysis Variable"
                                }
                            },
                            "core": "Perm",
                            "description": "The standardized MedDRA queries number code.",
                            "label": "SMQ zz Code",
                            "name": "SMQzzCD",
                            "ordinal": "76",
                            "simpleDatatype": "Num"
                        },
                        {
                            "_links": {
                                "parentDatastructure": {
                                    "href": "/mdr/adam/adam-adae-1-0/datastructures/ADAE",
                                    "title": "Adverse Event Analysis Dataset",
                                    "type": "Data Structure"
                                },
                                "parentProduct": {
                                    "href": "/mdr/adam/adam-adae-1-0",
                                    "title": "Analysis Data Model Data Structure for Adverse Event Analysis Version 1.0",
                                    "type": "Implementation Guide"
                                },
                                "parentVariableSet": {
                                    "href": "/mdr/adam/adam-adae-1-0/datastructures/ADAE/varsets/StandardizedMedDRAQueryVariables",
                                    "title": "Standardized MedDRA Query Variables",
                                    "type": "Variable Set"
                                },
                                "self": {
                                    "href": "/mdr/adam/adam-adae-1-0/datastructures/ADAE/variables/SMQzzSC",
                                    "title": "SMQ zz Scope",
                                    "type": "Analysis Variable"
                                }
                            },
                            "core": "Cond",
                            "description": "The search strategy for SMQs can be narrow or broad. The preferred terms that are narrow in scope have high specificity for identifying events of interest while the broad terms have high sensitivity. By definition, all narrow terms are also considered within the broad score. Therefore, to summarize all broad terms, terms with either narrow OR broad would be considered. Will be null for terms that do not meet the criteria. Conditional on whether SMQ analysis is done.",
                            "label": "SMQ zz Scope",
                            "name": "SMQzzSC",
                            "ordinal": "77",
                            "simpleDatatype": "Char",
                            "valueList": [
                                "BROAD",
                                "NARROW"
                            ]
                        },
                        {
                            "_links": {
                                "parentDatastructure": {
                                    "href": "/mdr/adam/adam-adae-1-0/datastructures/ADAE",
                                    "title": "Adverse Event Analysis Dataset",
                                    "type": "Data Structure"
                                },
                                "parentProduct": {
                                    "href": "/mdr/adam/adam-adae-1-0",
                                    "title": "Analysis Data Model Data Structure for Adverse Event Analysis Version 1.0",
                                    "type": "Implementation Guide"
                                },
                                "parentVariableSet": {
                                    "href": "/mdr/adam/adam-adae-1-0/datastructures/ADAE/varsets/StandardizedMedDRAQueryVariables",
                                    "title": "Standardized MedDRA Query Variables",
                                    "type": "Variable Set"
                                },
                                "self": {
                                    "href": "/mdr/adam/adam-adae-1-0/datastructures/ADAE/variables/SMQzzSCN",
                                    "title": "SMQ zz Scope (N)",
                                    "type": "Analysis Variable"
                                }
                            },
                            "core": "Perm",
                            "description": "Will be null for terms that do not meet the criteria.",
                            "label": "SMQ zz Scope (N)",
                            "name": "SMQzzSCN",
                            "ordinal": "78",
                            "simpleDatatype": "Num",
                            "valueList": [
                                "1",
                                "2"
                            ]
                        },
                        {
                            "_links": {
                                "parentDatastructure": {
                                    "href": "/mdr/adam/adam-adae-1-0/datastructures/ADAE",
                                    "title": "Adverse Event Analysis Dataset",
                                    "type": "Data Structure"
                                },
                                "parentProduct": {
                                    "href": "/mdr/adam/adam-adae-1-0",
                                    "title": "Analysis Data Model Data Structure for Adverse Event Analysis Version 1.0",
                                    "type": "Implementation Guide"
                                },
                                "parentVariableSet": {
                                    "href": "/mdr/adam/adam-adae-1-0/datastructures/ADAE/varsets/StandardizedMedDRAQueryVariables",
                                    "title": "Standardized MedDRA Query Variables",
                                    "type": "Variable Set"
                                },
                                "self": {
                                    "href": "/mdr/adam/adam-adae-1-0/datastructures/ADAE/variables/CQzzNAM",
                                    "title": "Customized Query zz Name",
                                    "type": "Analysis Variable"
                                }
                            },
                            "core": "Cond",
                            "description": "The customized query (CQ) name or name of the AE of special interest category based on a grouping of MedDRA terms. Would be blank for terms that are not in the CQ. Conditional on whether CQ analysis is done. Examples: \"DERMATOLOGICAL EVENTS\", \"CARDIAC EVENTS\", \"IARS (INFUSION ASSOCIATED REACTIONS)\"",
                            "label": "Customized Query zz Name",
                            "name": "CQzzNAM",
                            "ordinal": "79",
                            "simpleDatatype": "Char"
                        }
                    ],
                    "label": "Standardized MedDRA Query Variables",
                    "name": "Standardized MedDRA Query Variables",
                    "ordinal": "8"
                },
                {
                    "_links": {
                        "parentDatastructure": {
                            "href": "/mdr/adam/adam-adae-1-0/datastructures/ADAE",
                            "title": "Adverse Event Analysis Dataset",
                            "type": "Data Structure"
                        },
                        "parentProduct": {
                            "href": "/mdr/adam/adam-adae-1-0",
                            "title": "Analysis Data Model Data Structure for Adverse Event Analysis Version 1.0",
                            "type": "Implementation Guide"
                        },
                        "self": {
                            "href": "/mdr/adam/adam-adae-1-0/datastructures/ADAE/varsets/OriginalOrPriorMedDRACodingVariables",
                            "title": "Original or Prior MedDRA Coding Variables",
                            "type": "Variable Set"
                        }
                    },
                    "analysisVariables": [
                        {
                            "_links": {
                                "parentDatastructure": {
                                    "href": "/mdr/adam/adam-adae-1-0/datastructures/ADAE",
                                    "title": "Adverse Event Analysis Dataset",
                                    "type": "Data Structure"
                                },
                                "parentProduct": {
                                    "href": "/mdr/adam/adam-adae-1-0",
                                    "title": "Analysis Data Model Data Structure for Adverse Event Analysis Version 1.0",
                                    "type": "Implementation Guide"
                                },
                                "parentVariableSet": {
                                    "href": "/mdr/adam/adam-adae-1-0/datastructures/ADAE/varsets/OriginalOrPriorMedDRACodingVariables",
                                    "title": "Original or Prior MedDRA Coding Variables",
                                    "type": "Variable Set"
                                },
                                "self": {
                                    "href": "/mdr/adam/adam-adae-1-0/datastructures/ADAE/variables/DECDORGy",
                                    "title": "PT in Original Dictionary y",
                                    "type": "Analysis Variable"
                                }
                            },
                            "core": "Perm",
                            "describedValueDomain": "MedDRA",
                            "description": "Original preferred term coding of AE.AETERM using MedDRA or other dictionary version X.X.",
                            "label": "PT in Original Dictionary y",
                            "name": "DECDORGy",
                            "ordinal": "80",
                            "simpleDatatype": "Char"
                        },
                        {
                            "_links": {
                                "parentDatastructure": {
                                    "href": "/mdr/adam/adam-adae-1-0/datastructures/ADAE",
                                    "title": "Adverse Event Analysis Dataset",
                                    "type": "Data Structure"
                                },
                                "parentProduct": {
                                    "href": "/mdr/adam/adam-adae-1-0",
                                    "title": "Analysis Data Model Data Structure for Adverse Event Analysis Version 1.0",
                                    "type": "Implementation Guide"
                                },
                                "parentVariableSet": {
                                    "href": "/mdr/adam/adam-adae-1-0/datastructures/ADAE/varsets/OriginalOrPriorMedDRACodingVariables",
                                    "title": "Original or Prior MedDRA Coding Variables",
                                    "type": "Variable Set"
                                },
                                "self": {
                                    "href": "/mdr/adam/adam-adae-1-0/datastructures/ADAE/variables/BDSYORGy",
                                    "title": "SOC in Original Dictionary y",
                                    "type": "Analysis Variable"
                                }
                            },
                            "core": "Perm",
                            "describedValueDomain": "MedDRA",
                            "description": "Original body system coding of AE.AETERM using MedDRA or other dictionary version X.X.",
                            "label": "SOC in Original Dictionary y",
                            "name": "BDSYORGy",
                            "ordinal": "81",
                            "simpleDatatype": "Char"
                        },
                        {
                            "_links": {
                                "parentDatastructure": {
                                    "href": "/mdr/adam/adam-adae-1-0/datastructures/ADAE",
                                    "title": "Adverse Event Analysis Dataset",
                                    "type": "Data Structure"
                                },
                                "parentProduct": {
                                    "href": "/mdr/adam/adam-adae-1-0",
                                    "title": "Analysis Data Model Data Structure for Adverse Event Analysis Version 1.0",
                                    "type": "Implementation Guide"
                                },
                                "parentVariableSet": {
                                    "href": "/mdr/adam/adam-adae-1-0/datastructures/ADAE/varsets/OriginalOrPriorMedDRACodingVariables",
                                    "title": "Original or Prior MedDRA Coding Variables",
                                    "type": "Variable Set"
                                },
                                "self": {
                                    "href": "/mdr/adam/adam-adae-1-0/datastructures/ADAE/variables/HLGTORGy",
                                    "title": "HLGT in Original Dictionary y",
                                    "type": "Analysis Variable"
                                }
                            },
                            "core": "Perm",
                            "describedValueDomain": "MedDRA",
                            "description": "Original HLGT coding of AE.AETERM using MedDRA or other dictionary version X.X.",
                            "label": "HLGT in Original Dictionary y",
                            "name": "HLGTORGy",
                            "ordinal": "82",
                            "simpleDatatype": "Char"
                        },
                        {
                            "_links": {
                                "parentDatastructure": {
                                    "href": "/mdr/adam/adam-adae-1-0/datastructures/ADAE",
                                    "title": "Adverse Event Analysis Dataset",
                                    "type": "Data Structure"
                                },
                                "parentProduct": {
                                    "href": "/mdr/adam/adam-adae-1-0",
                                    "title": "Analysis Data Model Data Structure for Adverse Event Analysis Version 1.0",
                                    "type": "Implementation Guide"
                                },
                                "parentVariableSet": {
                                    "href": "/mdr/adam/adam-adae-1-0/datastructures/ADAE/varsets/OriginalOrPriorMedDRACodingVariables",
                                    "title": "Original or Prior MedDRA Coding Variables",
                                    "type": "Variable Set"
                                },
                                "self": {
                                    "href": "/mdr/adam/adam-adae-1-0/datastructures/ADAE/variables/HLTORGy",
                                    "title": "HLT in Original Dictionary y",
                                    "type": "Analysis Variable"
                                }
                            },
                            "core": "Perm",
                            "describedValueDomain": "MedDRA",
                            "description": "Original HLT coding of AE.AETERM using MedDRA or other dictionary version X.X.",
                            "label": "HLT in Original Dictionary y",
                            "name": "HLTORGy",
                            "ordinal": "83",
                            "simpleDatatype": "Char"
                        },
                        {
                            "_links": {
                                "parentDatastructure": {
                                    "href": "/mdr/adam/adam-adae-1-0/datastructures/ADAE",
                                    "title": "Adverse Event Analysis Dataset",
                                    "type": "Data Structure"
                                },
                                "parentProduct": {
                                    "href": "/mdr/adam/adam-adae-1-0",
                                    "title": "Analysis Data Model Data Structure for Adverse Event Analysis Version 1.0",
                                    "type": "Implementation Guide"
                                },
                                "parentVariableSet": {
                                    "href": "/mdr/adam/adam-adae-1-0/datastructures/ADAE/varsets/OriginalOrPriorMedDRACodingVariables",
                                    "title": "Original or Prior MedDRA Coding Variables",
                                    "type": "Variable Set"
                                },
                                "self": {
                                    "href": "/mdr/adam/adam-adae-1-0/datastructures/ADAE/variables/LLTORGy",
                                    "title": "LLT in Original Dictionary y",
                                    "type": "Analysis Variable"
                                }
                            },
                            "core": "Perm",
                            "describedValueDomain": "MedDRA",
                            "description": "Original LLT coding of AE.AETERM using MedDRA or other dictionary version X.X.",
                            "label": "LLT in Original Dictionary y",
                            "name": "LLTORGy",
                            "ordinal": "84",
                            "simpleDatatype": "Char"
                        },
                        {
                            "_links": {
                                "parentDatastructure": {
                                    "href": "/mdr/adam/adam-adae-1-0/datastructures/ADAE",
                                    "title": "Adverse Event Analysis Dataset",
                                    "type": "Data Structure"
                                },
                                "parentProduct": {
                                    "href": "/mdr/adam/adam-adae-1-0",
                                    "title": "Analysis Data Model Data Structure for Adverse Event Analysis Version 1.0",
                                    "type": "Implementation Guide"
                                },
                                "parentVariableSet": {
                                    "href": "/mdr/adam/adam-adae-1-0/datastructures/ADAE/varsets/OriginalOrPriorMedDRACodingVariables",
                                    "title": "Original or Prior MedDRA Coding Variables",
                                    "type": "Variable Set"
                                },
                                "self": {
                                    "href": "/mdr/adam/adam-adae-1-0/datastructures/ADAE/variables/LLTNORGy",
                                    "title": "LLT Code in Original Dictionary y",
                                    "type": "Analysis Variable"
                                }
                            },
                            "core": "Perm",
                            "describedValueDomain": "MedDRA",
                            "description": "Original LLT code of AE.AETERM using MedDRA or other dictionary version X.X.",
                            "label": "LLT Code in Original Dictionary y",
                            "name": "LLTNORGy",
                            "ordinal": "85",
                            "simpleDatatype": "Char"
                        }
                    ],
                    "label": "Original or Prior MedDRA Coding Variables",
                    "name": "Original or Prior MedDRA Coding Variables",
                    "ordinal": "9"
                }
            ],
            "class": "ADAE",
            "description": "one record per subject per each AE recorded in SDTM AE domain (optional: per coding path, per Analysis Period and/or Phase)",
            "label": "Adverse Event Analysis Dataset",
            "name": "ADAE",
            "ordinal": "1"
        }
    ],
    "description": "The statistical analysis data structure presented in this document describes the general data structure and content typically found in Analysis Datasets used for common safety analysis of adverse events (AEs). Specifically, this is for analysis consisting of counting subjects with a record or term within a mapped dictionary hierarchy. The data structure is based on the ADaM Analysis Data Model V2.1 (referred to in this document as the ADaM v2.1) [1] and the ADaM Analysis Data Model Implementation Guide (ADaMIG) V1.0 [2].",
    "effectiveDate": "2012-05-10",
    "label": "Analysis Data Model Data Structure for Adverse Event Analysis Version 1.0",
    "name": "ADaM ADAE v1.0",
    "registrationStatus": "Final",
    "source": "Prepared by the CDISC Analysis Data Model Team",
    "version": "1.0"
}