{"_links": {"model": {"href": "/mdr/adam/adam-2-1", "title": "Analysis Data Model Version 2.1", "type": "Foundational Model"}, "self": {"href": "/mdr/adam/adamig-1-0", "title": "Analysis Data Model Implementation Guide Version 1.0", "type": "Implementation Guide"}}, "dataStructures": [{"_links": {"parentProduct": {"href": "/mdr/adam/adamig-1-0", "title": "Analysis Data Model Implementation Guide Version 1.0", "type": "Implementation Guide"}, "self": {"href": "/mdr/adam/adamig-1-0/datastructures/ADSL", "title": "Subject-Level Analysis Dataset Structure", "type": "Data Structure"}}, "analysisVariableSets": [{"_links": {"parentDatastructure": {"href": "/mdr/adam/adamig-1-0/datastructures/ADSL", "title": "Subject-Level Analysis Dataset Structure", "type": "Data Structure"}, "parentProduct": {"href": "/mdr/adam/adamig-1-0", "title": "Analysis Data Model Implementation Guide Version 1.0", "type": "Implementation Guide"}, "self": {"href": "/mdr/adam/adamig-1-0/datastructures/ADSL/varsets/StudyIdentifiers", "title": "Study Identifiers", "type": "Variable Set"}}, "analysisVariables": [{"_links": {"parentDatastructure": {"href": "/mdr/adam/adamig-1-0/datastructures/ADSL", "title": "Subject-Level Analysis Dataset Structure", "type": "Data Structure"}, "parentProduct": {"href": "/mdr/adam/adamig-1-0", "title": "Analysis Data Model Implementation Guide Version 1.0", "type": "Implementation Guide"}, "parentVariableSet": {"href": "/mdr/adam/adamig-1-0/datastructures/ADSL/varsets/StudyIdentifiers", "title": "Study Identifiers", "type": "Variable Set"}, "self": {"href": "/mdr/adam/adamig-1-0/datastructures/ADSL/variables/STUDYID", "title": "Study Identifier", "type": "Analysis Variable"}}, "core": "Req", "description": "Must be identical to the SDTM variables DM.STUDYID, DM.USUBJID, DM.SUBJID and DM.SITEID.", "label": "Study Identifier", "name": "STUDYID", "ordinal": "1", "simpleDatatype": "Char"}, {"_links": {"parentDatastructure": {"href": "/mdr/adam/adamig-1-0/datastructures/ADSL", "title": "Subject-Level Analysis Dataset Structure", "type": "Data Structure"}, "parentProduct": {"href": "/mdr/adam/adamig-1-0", "title": "Analysis Data Model Implementation Guide Version 1.0", "type": "Implementation Guide"}, "parentVariableSet": {"href": "/mdr/adam/adamig-1-0/datastructures/ADSL/varsets/StudyIdentifiers", "title": "Study Identifiers", "type": "Variable Set"}, "self": {"href": "/mdr/adam/adamig-1-0/datastructures/ADSL/variables/USUBJID", "title": "Unique Subject Identifier", "type": "Analysis Variable"}}, "core": "Req", "description": "Must be identical to the SDTM variables DM.STUDYID, DM.USUBJID, DM.SUBJID and DM.SITEID.", "label": "Unique Subject Identifier", "name": "USUBJID", "ordinal": "2", "simpleDatatype": "Char"}, {"_links": {"parentDatastructure": {"href": "/mdr/adam/adamig-1-0/datastructures/ADSL", "title": "Subject-Level Analysis Dataset Structure", "type": "Data Structure"}, "parentProduct": {"href": "/mdr/adam/adamig-1-0", "title": "Analysis Data Model Implementation Guide Version 1.0", "type": "Implementation Guide"}, "parentVariableSet": {"href": "/mdr/adam/adamig-1-0/datastructures/ADSL/varsets/StudyIdentifiers", "title": "Study Identifiers", "type": "Variable Set"}, "self": {"href": "/mdr/adam/adamig-1-0/datastructures/ADSL/variables/SUBJID", "title": "Subject Identifier for the Study", "type": "Analysis Variable"}}, "core": "Req", "description": "Must be identical to the SDTM variables DM.STUDYID, DM.USUBJID, DM.SUBJID and DM.SITEID.", "label": "Subject Identifier for the Study", "name": "SUBJID", "ordinal": "3", "simpleDatatype": "Char"}, {"_links": {"parentDatastructure": {"href": "/mdr/adam/adamig-1-0/datastructures/ADSL", "title": "Subject-Level Analysis Dataset Structure", "type": "Data Structure"}, "parentProduct": {"href": "/mdr/adam/adamig-1-0", "title": "Analysis Data Model Implementation Guide Version 1.0", "type": "Implementation Guide"}, "parentVariableSet": {"href": "/mdr/adam/adamig-1-0/datastructures/ADSL/varsets/StudyIdentifiers", "title": "Study Identifiers", "type": "Variable Set"}, "self": {"href": "/mdr/adam/adamig-1-0/datastructures/ADSL/variables/SITEID", "title": "Study Site Identifier", "type": "Analysis Variable"}}, "core": "Req", "description": "Must be identical to the SDTM variables DM.STUDYID, DM.USUBJID, DM.SUBJID and DM.SITEID.", "label": "Study Site Identifier", "name": "SITEID", "ordinal": "4", "simpleDatatype": "Char"}, {"_links": {"parentDatastructure": {"href": "/mdr/adam/adamig-1-0/datastructures/ADSL", "title": "Subject-Level Analysis Dataset Structure", "type": "Data Structure"}, "parentProduct": {"href": "/mdr/adam/adamig-1-0", "title": "Analysis Data Model Implementation Guide Version 1.0", "type": "Implementation Guide"}, "parentVariableSet": {"href": "/mdr/adam/adamig-1-0/datastructures/ADSL/varsets/StudyIdentifiers", "title": "Study Identifiers", "type": "Variable Set"}, "self": {"href": "/mdr/adam/adamig-1-0/datastructures/ADSL/variables/SITEGRy", "title": "Pooled Site Group y", "type": "Analysis Variable"}}, "core": "Perm", "description": "Character description of a grouping or pooling of clinical sites for analysis purposes. For example, SITEGR3 is the name of a variable containing site group (pooled site) names, where the grouping has been done according to the third site grouping algorithm, defined in variable metadata; SITEGR3 does not mean the third group of sites.", "label": "Pooled Site Group y", "name": "SITEGRy", "ordinal": "5", "simpleDatatype": "Char"}, {"_links": {"parentDatastructure": {"href": "/mdr/adam/adamig-1-0/datastructures/ADSL", "title": "Subject-Level Analysis Dataset Structure", "type": "Data Structure"}, "parentProduct": {"href": "/mdr/adam/adamig-1-0", "title": "Analysis Data Model Implementation Guide Version 1.0", "type": "Implementation Guide"}, "parentVariableSet": {"href": "/mdr/adam/adamig-1-0/datastructures/ADSL/varsets/StudyIdentifiers", "title": "Study Identifiers", "type": "Variable Set"}, "self": {"href": "/mdr/adam/adamig-1-0/datastructures/ADSL/variables/SITEGRyN", "title": "Pooled Site Group y (N)", "type": "Analysis Variable"}}, "core": "Perm", "description": "The numeric code for SITEGRy. One-to-one map to SITEGRy.", "label": "Pooled Site Group y (N)", "name": "SITEGRyN", "ordinal": "6", "simpleDatatype": "Num"}], "label": "Study Identifiers", "name": "Study Identifiers", "ordinal": "1"}, {"_links": {"parentDatastructure": {"href": "/mdr/adam/adamig-1-0/datastructures/ADSL", "title": "Subject-Level Analysis Dataset Structure", "type": "Data Structure"}, "parentProduct": {"href": "/mdr/adam/adamig-1-0", "title": "Analysis Data Model Implementation Guide Version 1.0", "type": "Implementation Guide"}, "self": {"href": "/mdr/adam/adamig-1-0/datastructures/ADSL/varsets/SubjectDemographics", "title": "Subject Demographics", "type": "Variable Set"}}, "analysisVariables": [{"_links": {"parentDatastructure": {"href": "/mdr/adam/adamig-1-0/datastructures/ADSL", "title": "Subject-Level Analysis Dataset Structure", "type": "Data Structure"}, "parentProduct": {"href": "/mdr/adam/adamig-1-0", "title": "Analysis Data Model Implementation Guide Version 1.0", "type": "Implementation Guide"}, "parentVariableSet": {"href": "/mdr/adam/adamig-1-0/datastructures/ADSL/varsets/SubjectDemographics", "title": "Subject Demographics", "type": "Variable Set"}, "self": {"href": "/mdr/adam/adamig-1-0/datastructures/ADSL/variables/AGE", "title": "Age", "type": "Analysis Variable"}}, "core": "Req", "description": "The age of the subject is a required variable in ADSL. If the variable is not a copy of DM.AGE, then an additional differently named variable must be added.", "label": "Age", "name": "AGE", "ordinal": "7", "simpleDatatype": "Num"}, {"_links": {"codelist": [{"href": "/mdr/root/ct/sdtmct/codelists/C66781", "title": "Version-agnostic anchor resource for codelist C66781", "type": "Root Value Domain"}], "parentDatastructure": {"href": "/mdr/adam/adamig-1-0/datastructures/ADSL", "title": "Subject-Level Analysis Dataset Structure", "type": "Data Structure"}, "parentProduct": {"href": "/mdr/adam/adamig-1-0", "title": "Analysis Data Model Implementation Guide Version 1.0", "type": "Implementation Guide"}, "parentVariableSet": {"href": "/mdr/adam/adamig-1-0/datastructures/ADSL/varsets/SubjectDemographics", "title": "Subject Demographics", "type": "Variable Set"}, "self": {"href": "/mdr/adam/adamig-1-0/datastructures/ADSL/variables/AGEU", "title": "Age Units", "type": "Analysis Variable"}}, "codelistSubmissionValues": ["AGEU"], "core": "Req", "description": "The units for the subject's age is a required variable in ADSL. If the variable is not a copy of DM.AGEU, then an additional differently named variable must be added.", "label": "Age Units", "name": "AGEU", "ordinal": "8", "simpleDatatype": "Char"}, {"_links": {"codelist": [{"href": "/mdr/root/ct/sdtmct/codelists/C66731", "title": "Version-agnostic anchor resource for codelist C66731", "type": "Root Value Domain"}], "parentDatastructure": {"href": "/mdr/adam/adamig-1-0/datastructures/ADSL", "title": "Subject-Level Analysis Dataset Structure", "type": "Data Structure"}, "parentProduct": {"href": "/mdr/adam/adamig-1-0", "title": "Analysis Data Model Implementation Guide Version 1.0", "type": "Implementation Guide"}, "parentVariableSet": {"href": "/mdr/adam/adamig-1-0/datastructures/ADSL/varsets/SubjectDemographics", "title": "Subject Demographics", "type": "Variable Set"}, "self": {"href": "/mdr/adam/adamig-1-0/datastructures/ADSL/variables/SEX", "title": "Sex", "type": "Analysis Variable"}}, "codelistSubmissionValues": ["SEX"], "core": "Req", "description": "The sex of the subject is a required variable in ADSL. If the variable is not a copy of DM.SEX, then an additional differently named variable must be added.", "label": "Sex", "name": "SEX", "ordinal": "9", "simpleDatatype": "Char"}, {"_links": {"codelist": [{"href": "/mdr/root/ct/sdtmct/codelists/C74457", "title": "Version-agnostic anchor resource for codelist C74457", "type": "Root Value Domain"}], "parentDatastructure": {"href": "/mdr/adam/adamig-1-0/datastructures/ADSL", "title": "Subject-Level Analysis Dataset Structure", "type": "Data Structure"}, "parentProduct": {"href": "/mdr/adam/adamig-1-0", "title": "Analysis Data Model Implementation Guide Version 1.0", "type": "Implementation Guide"}, "parentVariableSet": {"href": "/mdr/adam/adamig-1-0/datastructures/ADSL/varsets/SubjectDemographics", "title": "Subject Demographics", "type": "Variable Set"}, "self": {"href": "/mdr/adam/adamig-1-0/datastructures/ADSL/variables/RACE", "title": "Race", "type": "Analysis Variable"}}, "codelistSubmissionValues": ["RACE"], "core": "Req", "description": "The race of the subject is a required variable in ADSL. If the variable is not a copy of DM.RACE, then an additional differently named variable must be added.", "label": "Race", "name": "RACE", "ordinal": "10", "simpleDatatype": "Char"}, {"_links": {"parentDatastructure": {"href": "/mdr/adam/adamig-1-0/datastructures/ADSL", "title": "Subject-Level Analysis Dataset Structure", "type": "Data Structure"}, "parentProduct": {"href": "/mdr/adam/adamig-1-0", "title": "Analysis Data Model Implementation Guide Version 1.0", "type": "Implementation Guide"}, "parentVariableSet": {"href": "/mdr/adam/adamig-1-0/datastructures/ADSL/varsets/SubjectDemographics", "title": "Subject Demographics", "type": "Variable Set"}, "self": {"href": "/mdr/adam/adamig-1-0/datastructures/ADSL/variables/RACEGRy", "title": "Pooled Race Group y", "type": "Analysis Variable"}}, "core": "Perm", "description": "Character description of a grouping or pooling of subject race for analysis purposes.", "label": "Pooled Race Group y", "name": "RACEGRy", "ordinal": "11", "simpleDatatype": "Char"}, {"_links": {"parentDatastructure": {"href": "/mdr/adam/adamig-1-0/datastructures/ADSL", "title": "Subject-Level Analysis Dataset Structure", "type": "Data Structure"}, "parentProduct": {"href": "/mdr/adam/adamig-1-0", "title": "Analysis Data Model Implementation Guide Version 1.0", "type": "Implementation Guide"}, "parentVariableSet": {"href": "/mdr/adam/adamig-1-0/datastructures/ADSL/varsets/SubjectDemographics", "title": "Subject Demographics", "type": "Variable Set"}, "self": {"href": "/mdr/adam/adamig-1-0/datastructures/ADSL/variables/RACEGRyN", "title": "Pooled Race Group y (N)", "type": "Analysis Variable"}}, "core": "Perm", "description": "The numeric code for RACEGRy. Orders the grouping or pooling of subject race for analysis and reporting. One-to-one map to RACEGRy.", "label": "Pooled Race Group y (N)", "name": "RACEGRyN", "ordinal": "12", "simpleDatatype": "Num"}], "label": "Subject Demographics", "name": "Subject Demographics", "ordinal": "2"}, {"_links": {"parentDatastructure": {"href": "/mdr/adam/adamig-1-0/datastructures/ADSL", "title": "Subject-Level Analysis Dataset Structure", "type": "Data Structure"}, "parentProduct": {"href": "/mdr/adam/adamig-1-0", "title": "Analysis Data Model Implementation Guide Version 1.0", "type": "Implementation Guide"}, "self": {"href": "/mdr/adam/adamig-1-0/datastructures/ADSL/varsets/PopulationIndicators", "title": "Population Indicator(s)", "type": "Variable Set"}}, "analysisVariables": [{"_links": {"parentDatastructure": {"href": "/mdr/adam/adamig-1-0/datastructures/ADSL", "title": "Subject-Level Analysis Dataset Structure", "type": "Data Structure"}, "parentProduct": {"href": "/mdr/adam/adamig-1-0", "title": "Analysis Data Model Implementation Guide Version 1.0", "type": "Implementation Guide"}, "parentVariableSet": {"href": "/mdr/adam/adamig-1-0/datastructures/ADSL/varsets/PopulationIndicators", "title": "Population Indicator(s)", "type": "Variable Set"}, "self": {"href": "/mdr/adam/adamig-1-0/datastructures/ADSL/variables/FASFL", "title": "Full Analysis Set Population Flag", "type": "Analysis Variable"}}, "core": "Cond", "description": "A character indicator variable is required for every population that is defined in the statistical analysis plan. A minimum of one subject-level population flag variable is required for every clinical trial. Additional population flags may be added. The values of subject-level population flags cannot be blank. If a flag is used, the corresponding numeric version (*FN) can also be included.", "label": "Full Analysis Set Population Flag", "name": "FASFL", "ordinal": "13", "simpleDatatype": "Char", "valueList": ["N", "Y"]}, {"_links": {"parentDatastructure": {"href": "/mdr/adam/adamig-1-0/datastructures/ADSL", "title": "Subject-Level Analysis Dataset Structure", "type": "Data Structure"}, "parentProduct": {"href": "/mdr/adam/adamig-1-0", "title": "Analysis Data Model Implementation Guide Version 1.0", "type": "Implementation Guide"}, "parentVariableSet": {"href": "/mdr/adam/adamig-1-0/datastructures/ADSL/varsets/PopulationIndicators", "title": "Population Indicator(s)", "type": "Variable Set"}, "self": {"href": "/mdr/adam/adamig-1-0/datastructures/ADSL/variables/SAFFL", "title": "Safety Population Flag", "type": "Analysis Variable"}}, "core": "Cond", "description": "A character indicator variable is required for every population that is defined in the statistical analysis plan. A minimum of one subject-level population flag variable is required for every clinical trial. Additional population flags may be added. The values of subject-level population flags cannot be blank. If a flag is used, the corresponding numeric version (*FN) can also be included.", "label": "Safety Population Flag", "name": "SAFFL", "ordinal": "14", "simpleDatatype": "Char", "valueList": ["N", "Y"]}, {"_links": {"parentDatastructure": {"href": "/mdr/adam/adamig-1-0/datastructures/ADSL", "title": "Subject-Level Analysis Dataset Structure", "type": "Data Structure"}, "parentProduct": {"href": "/mdr/adam/adamig-1-0", "title": "Analysis Data Model Implementation Guide Version 1.0", "type": "Implementation Guide"}, "parentVariableSet": {"href": "/mdr/adam/adamig-1-0/datastructures/ADSL/varsets/PopulationIndicators", "title": "Population Indicator(s)", "type": "Variable Set"}, "self": {"href": "/mdr/adam/adamig-1-0/datastructures/ADSL/variables/ITTFL", "title": "Intent-To-Treat Population Flag", "type": "Analysis Variable"}}, "core": "Cond", "description": "A character indicator variable is required for every population that is defined in the statistical analysis plan. A minimum of one subject-level population flag variable is required for every clinical trial. Additional population flags may be added. The values of subject-level population flags cannot be blank. If a flag is used, the corresponding numeric version (*FN) can also be included.", "label": "Intent-To-Treat Population Flag", "name": "ITTFL", "ordinal": "15", "simpleDatatype": "Char", "valueList": ["N", "Y"]}, {"_links": {"parentDatastructure": {"href": "/mdr/adam/adamig-1-0/datastructures/ADSL", "title": "Subject-Level Analysis Dataset Structure", "type": "Data Structure"}, "parentProduct": {"href": "/mdr/adam/adamig-1-0", "title": "Analysis Data Model Implementation Guide Version 1.0", "type": "Implementation Guide"}, "parentVariableSet": {"href": "/mdr/adam/adamig-1-0/datastructures/ADSL/varsets/PopulationIndicators", "title": "Population Indicator(s)", "type": "Variable Set"}, "self": {"href": "/mdr/adam/adamig-1-0/datastructures/ADSL/variables/PPROTFL", "title": "Per-Protocol Population Flag", "type": "Analysis Variable"}}, "core": "Cond", "description": "A character indicator variable is required for every population that is defined in the statistical analysis plan. A minimum of one subject-level population flag variable is required for every clinical trial. Additional population flags may be added. The values of subject-level population flags cannot be blank. If a flag is used, the corresponding numeric version (*FN) can also be included.", "label": "Per-Protocol Population Flag", "name": "PPROTFL", "ordinal": "16", "simpleDatatype": "Char", "valueList": ["N", "Y"]}, {"_links": {"parentDatastructure": {"href": "/mdr/adam/adamig-1-0/datastructures/ADSL", "title": "Subject-Level Analysis Dataset Structure", "type": "Data Structure"}, "parentProduct": {"href": "/mdr/adam/adamig-1-0", "title": "Analysis Data Model Implementation Guide Version 1.0", "type": "Implementation Guide"}, "parentVariableSet": {"href": "/mdr/adam/adamig-1-0/datastructures/ADSL/varsets/PopulationIndicators", "title": "Population Indicator(s)", "type": "Variable Set"}, "self": {"href": "/mdr/adam/adamig-1-0/datastructures/ADSL/variables/COMPLFL", "title": "Completers Population Flag", "type": "Analysis Variable"}}, "core": "Cond", "description": "A character indicator variable is required for every population that is defined in the statistical analysis plan. A minimum of one subject-level population flag variable is required for every clinical trial. Additional population flags may be added. The values of subject-level population flags cannot be blank. If a flag is used, the corresponding numeric version (*FN) can also be included.", "label": "Completers Population Flag", "name": "COMPLFL", "ordinal": "17", "simpleDatatype": "Char", "valueList": ["N", "Y"]}, {"_links": {"parentDatastructure": {"href": "/mdr/adam/adamig-1-0/datastructures/ADSL", "title": "Subject-Level Analysis Dataset Structure", "type": "Data Structure"}, "parentProduct": {"href": "/mdr/adam/adamig-1-0", "title": "Analysis Data Model Implementation Guide Version 1.0", "type": "Implementation Guide"}, "parentVariableSet": {"href": "/mdr/adam/adamig-1-0/datastructures/ADSL/varsets/PopulationIndicators", "title": "Population Indicator(s)", "type": "Variable Set"}, "self": {"href": "/mdr/adam/adamig-1-0/datastructures/ADSL/variables/RANDFL", "title": "Randomized Population Flag", "type": "Analysis Variable"}}, "core": "Cond", "description": "A character indicator variable is required for every population that is defined in the statistical analysis plan. A minimum of one subject-level population flag variable is required for every clinical trial. Additional population flags may be added. The values of subject-level population flags cannot be blank. If a flag is used, the corresponding numeric version (*FN) can also be included.", "label": "Randomized Population Flag", "name": "RANDFL", "ordinal": "18", "simpleDatatype": "Char", "valueList": ["N", "Y"]}, {"_links": {"parentDatastructure": {"href": "/mdr/adam/adamig-1-0/datastructures/ADSL", "title": "Subject-Level Analysis Dataset Structure", "type": "Data Structure"}, "parentProduct": {"href": "/mdr/adam/adamig-1-0", "title": "Analysis Data Model Implementation Guide Version 1.0", "type": "Implementation Guide"}, "parentVariableSet": {"href": "/mdr/adam/adamig-1-0/datastructures/ADSL/varsets/PopulationIndicators", "title": "Population Indicator(s)", "type": "Variable Set"}, "self": {"href": "/mdr/adam/adamig-1-0/datastructures/ADSL/variables/ENRLFL", "title": "Enrolled Population Flag", "type": "Analysis Variable"}}, "core": "Cond", "description": "A character indicator variable is required for every population that is defined in the statistical analysis plan. A minimum of one subject-level population flag variable is required for every clinical trial. Additional population flags may be added. The values of subject-level population flags cannot be blank. If a flag is used, the corresponding numeric version (*FN) can also be included.", "label": "Enrolled Population Flag", "name": "ENRLFL", "ordinal": "19", "simpleDatatype": "Char", "valueList": ["N", "Y"]}], "label": "Population Indicator(s)", "name": "Population Indicator(s)", "ordinal": "3"}, {"_links": {"parentDatastructure": {"href": "/mdr/adam/adamig-1-0/datastructures/ADSL", "title": "Subject-Level Analysis Dataset Structure", "type": "Data Structure"}, "parentProduct": {"href": "/mdr/adam/adamig-1-0", "title": "Analysis Data Model Implementation Guide Version 1.0", "type": "Implementation Guide"}, "self": {"href": "/mdr/adam/adamig-1-0/datastructures/ADSL/varsets/TreatmentVariables", "title": "Treatment Variables", "type": "Variable Set"}}, "analysisVariables": [{"_links": {"parentDatastructure": {"href": "/mdr/adam/adamig-1-0/datastructures/ADSL", "title": "Subject-Level Analysis Dataset Structure", "type": "Data Structure"}, "parentProduct": {"href": "/mdr/adam/adamig-1-0", "title": "Analysis Data Model Implementation Guide Version 1.0", "type": "Implementation Guide"}, "parentVariableSet": {"href": "/mdr/adam/adamig-1-0/datastructures/ADSL/varsets/TreatmentVariables", "title": "Treatment Variables", "type": "Variable Set"}, "self": {"href": "/mdr/adam/adamig-1-0/datastructures/ADSL/variables/ARM", "title": "Description of Planned Arm", "type": "Analysis Variable"}}, "core": "Req", "description": "DM.ARM", "label": "Description of Planned Arm", "name": "ARM", "ordinal": "20", "simpleDatatype": "Char"}, {"_links": {"parentDatastructure": {"href": "/mdr/adam/adamig-1-0/datastructures/ADSL", "title": "Subject-Level Analysis Dataset Structure", "type": "Data Structure"}, "parentProduct": {"href": "/mdr/adam/adamig-1-0", "title": "Analysis Data Model Implementation Guide Version 1.0", "type": "Implementation Guide"}, "parentVariableSet": {"href": "/mdr/adam/adamig-1-0/datastructures/ADSL/varsets/TreatmentVariables", "title": "Treatment Variables", "type": "Variable Set"}, "self": {"href": "/mdr/adam/adamig-1-0/datastructures/ADSL/variables/TRTxxP", "title": "Planned Treatment for Period xx", "type": "Analysis Variable"}}, "core": "Req", "description": "Subject-level identifier that represents the planned treatment for period xx. In a one-period randomized trial, TRT01P would be the treatment to which the subject was randomized. TRTxxP might be derived from the SDTM DM variable ARM. At least TRT01P is required.", "label": "Planned Treatment for Period xx", "name": "TRTxxP", "ordinal": "21", "simpleDatatype": "Char"}, {"_links": {"parentDatastructure": {"href": "/mdr/adam/adamig-1-0/datastructures/ADSL", "title": "Subject-Level Analysis Dataset Structure", "type": "Data Structure"}, "parentProduct": {"href": "/mdr/adam/adamig-1-0", "title": "Analysis Data Model Implementation Guide Version 1.0", "type": "Implementation Guide"}, "parentVariableSet": {"href": "/mdr/adam/adamig-1-0/datastructures/ADSL/varsets/TreatmentVariables", "title": "Treatment Variables", "type": "Variable Set"}, "self": {"href": "/mdr/adam/adamig-1-0/datastructures/ADSL/variables/TRTxxPN", "title": "Planned Treatment for Period xx (N)", "type": "Analysis Variable"}}, "core": "Perm", "description": "The numeric code variable for TRTxxP. One-to-one map to TRTxxP.", "label": "Planned Treatment for Period xx (N)", "name": "TRTxxPN", "ordinal": "22", "simpleDatatype": "Num"}, {"_links": {"parentDatastructure": {"href": "/mdr/adam/adamig-1-0/datastructures/ADSL", "title": "Subject-Level Analysis Dataset Structure", "type": "Data Structure"}, "parentProduct": {"href": "/mdr/adam/adamig-1-0", "title": "Analysis Data Model Implementation Guide Version 1.0", "type": "Implementation Guide"}, "parentVariableSet": {"href": "/mdr/adam/adamig-1-0/datastructures/ADSL/varsets/TreatmentVariables", "title": "Treatment Variables", "type": "Variable Set"}, "self": {"href": "/mdr/adam/adamig-1-0/datastructures/ADSL/variables/TRTxxA", "title": "Actual Treatment for Period xx", "type": "Analysis Variable"}}, "core": "Cond", "description": "Subject-level identifier that represents the actual treatment for the subject for period xx. Required when actual treatment does not match planned and there is an analysis of the data as treated.", "label": "Actual Treatment for Period xx", "name": "TRTxxA", "ordinal": "23", "simpleDatatype": "Char"}, {"_links": {"parentDatastructure": {"href": "/mdr/adam/adamig-1-0/datastructures/ADSL", "title": "Subject-Level Analysis Dataset Structure", "type": "Data Structure"}, "parentProduct": {"href": "/mdr/adam/adamig-1-0", "title": "Analysis Data Model Implementation Guide Version 1.0", "type": "Implementation Guide"}, "parentVariableSet": {"href": "/mdr/adam/adamig-1-0/datastructures/ADSL/varsets/TreatmentVariables", "title": "Treatment Variables", "type": "Variable Set"}, "self": {"href": "/mdr/adam/adamig-1-0/datastructures/ADSL/variables/TRTxxAN", "title": "Actual Treatment for Period xx (N)", "type": "Analysis Variable"}}, "core": "Perm", "description": "The numeric code variable for TRTxxA. One-to-one map to TRTxxA.", "label": "Actual Treatment for Period xx (N)", "name": "TRTxxAN", "ordinal": "24", "simpleDatatype": "Num"}, {"_links": {"parentDatastructure": {"href": "/mdr/adam/adamig-1-0/datastructures/ADSL", "title": "Subject-Level Analysis Dataset Structure", "type": "Data Structure"}, "parentProduct": {"href": "/mdr/adam/adamig-1-0", "title": "Analysis Data Model Implementation Guide Version 1.0", "type": "Implementation Guide"}, "parentVariableSet": {"href": "/mdr/adam/adamig-1-0/datastructures/ADSL/varsets/TreatmentVariables", "title": "Treatment Variables", "type": "Variable Set"}, "self": {"href": "/mdr/adam/adamig-1-0/datastructures/ADSL/variables/TRTSEQP", "title": "Planned Sequence of Treatments", "type": "Analysis Variable"}}, "core": "Cond", "description": "Required when there is a sequence of treatments that are analyzed, for example in a crossover design. TRTSEQP is not necessarily equal to ARM, for example if ARM contains elements that are not relevant to analysis of treatments or ARM is not fully descriptive (e.g., \"GROUP 1,\" \"GROUP 2\"). Whenever applicable, TRTSEQP is required even if identical to ARM.", "label": "Planned Sequence of Treatments", "name": "TRTSEQP", "ordinal": "25", "simpleDatatype": "Char"}, {"_links": {"parentDatastructure": {"href": "/mdr/adam/adamig-1-0/datastructures/ADSL", "title": "Subject-Level Analysis Dataset Structure", "type": "Data Structure"}, "parentProduct": {"href": "/mdr/adam/adamig-1-0", "title": "Analysis Data Model Implementation Guide Version 1.0", "type": "Implementation Guide"}, "parentVariableSet": {"href": "/mdr/adam/adamig-1-0/datastructures/ADSL/varsets/TreatmentVariables", "title": "Treatment Variables", "type": "Variable Set"}, "self": {"href": "/mdr/adam/adamig-1-0/datastructures/ADSL/variables/TRTSEQPN", "title": "Planned Sequence of Treatments (N)", "type": "Analysis Variable"}}, "core": "Perm", "description": "Numeric version of TRTSEQP. One-to-one map to TRTSEQP.", "label": "Planned Sequence of Treatments (N)", "name": "TRTSEQPN", "ordinal": "26", "simpleDatatype": "Num"}, {"_links": {"parentDatastructure": {"href": "/mdr/adam/adamig-1-0/datastructures/ADSL", "title": "Subject-Level Analysis Dataset Structure", "type": "Data Structure"}, "parentProduct": {"href": "/mdr/adam/adamig-1-0", "title": "Analysis Data Model Implementation Guide Version 1.0", "type": "Implementation Guide"}, "parentVariableSet": {"href": "/mdr/adam/adamig-1-0/datastructures/ADSL/varsets/TreatmentVariables", "title": "Treatment Variables", "type": "Variable Set"}, "self": {"href": "/mdr/adam/adamig-1-0/datastructures/ADSL/variables/TRTSEQA", "title": "Actual Sequence of Treatments", "type": "Analysis Variable"}}, "core": "Cond", "description": "TRTSEQA is required if a situation occurred in the conduct of the trial where a subject received a sequence of treatments other than what was planned.", "label": "Actual Sequence of Treatments", "name": "TRTSEQA", "ordinal": "27", "simpleDatatype": "Char"}, {"_links": {"parentDatastructure": {"href": "/mdr/adam/adamig-1-0/datastructures/ADSL", "title": "Subject-Level Analysis Dataset Structure", "type": "Data Structure"}, "parentProduct": {"href": "/mdr/adam/adamig-1-0", "title": "Analysis Data Model Implementation Guide Version 1.0", "type": "Implementation Guide"}, "parentVariableSet": {"href": "/mdr/adam/adamig-1-0/datastructures/ADSL/varsets/TreatmentVariables", "title": "Treatment Variables", "type": "Variable Set"}, "self": {"href": "/mdr/adam/adamig-1-0/datastructures/ADSL/variables/TRTSEQAN", "title": "Actual Sequence of Treatments (N)", "type": "Analysis Variable"}}, "core": "Perm", "description": "Numeric version of TRTSEQA. One-to-one map to TRTSEQA.", "label": "Actual Sequence of Treatments (N)", "name": "TRTSEQAN", "ordinal": "28", "simpleDatatype": "Num"}, {"_links": {"parentDatastructure": {"href": "/mdr/adam/adamig-1-0/datastructures/ADSL", "title": "Subject-Level Analysis Dataset Structure", "type": "Data Structure"}, "parentProduct": {"href": "/mdr/adam/adamig-1-0", "title": "Analysis Data Model Implementation Guide Version 1.0", "type": "Implementation Guide"}, "parentVariableSet": {"href": "/mdr/adam/adamig-1-0/datastructures/ADSL/varsets/TreatmentVariables", "title": "Treatment Variables", "type": "Variable Set"}, "self": {"href": "/mdr/adam/adamig-1-0/datastructures/ADSL/variables/TRxxPGy", "title": "Planned Pooled Treatment y for Period xx", "type": "Analysis Variable"}}, "core": "Perm", "description": "Planned pooled treatment y for period xx. Useful when planned treatments (TRTxxP) in the specified period xx are pooled together for analysis according to pooling algorithm y. For example when in period 2 the first pooling algorithm dictates that all doses of Drug A (TR02PG1=\"All doses of Drug A\") are pooled together for comparison to all doses of Drug B (TR02PG1=\"All doses of Drug B\"). Each value of TRTxxP is pooled within at most one value of TRxxPGy.", "label": "Planned Pooled Treatment y for Period xx", "name": "TRxxPGy", "ordinal": "29", "simpleDatatype": "Char"}, {"_links": {"parentDatastructure": {"href": "/mdr/adam/adamig-1-0/datastructures/ADSL", "title": "Subject-Level Analysis Dataset Structure", "type": "Data Structure"}, "parentProduct": {"href": "/mdr/adam/adamig-1-0", "title": "Analysis Data Model Implementation Guide Version 1.0", "type": "Implementation Guide"}, "parentVariableSet": {"href": "/mdr/adam/adamig-1-0/datastructures/ADSL/varsets/TreatmentVariables", "title": "Treatment Variables", "type": "Variable Set"}, "self": {"href": "/mdr/adam/adamig-1-0/datastructures/ADSL/variables/TRxxPGyN", "title": "Planned Pooled Trt y for Period xx (N)", "type": "Analysis Variable"}}, "core": "Perm", "description": "The numeric code for TRxxPGy. One-to-one map to TRxxPGy.", "label": "Planned Pooled Trt y for Period xx (N)", "name": "TRxxPGyN", "ordinal": "30", "simpleDatatype": "Char"}, {"_links": {"parentDatastructure": {"href": "/mdr/adam/adamig-1-0/datastructures/ADSL", "title": "Subject-Level Analysis Dataset Structure", "type": "Data Structure"}, "parentProduct": {"href": "/mdr/adam/adamig-1-0", "title": "Analysis Data Model Implementation Guide Version 1.0", "type": "Implementation Guide"}, "parentVariableSet": {"href": "/mdr/adam/adamig-1-0/datastructures/ADSL/varsets/TreatmentVariables", "title": "Treatment Variables", "type": "Variable Set"}, "self": {"href": "/mdr/adam/adamig-1-0/datastructures/ADSL/variables/TRxxAGy", "title": "Actual Pooled Treatment y for Period xx", "type": "Analysis Variable"}}, "core": "Cond", "description": "Actual pooled treatment y for period xx. Required when TRxxPGy is present and TRTxxA is present.", "label": "Actual Pooled Treatment y for Period xx", "name": "TRxxAGy", "ordinal": "31", "simpleDatatype": "Char"}, {"_links": {"parentDatastructure": {"href": "/mdr/adam/adamig-1-0/datastructures/ADSL", "title": "Subject-Level Analysis Dataset Structure", "type": "Data Structure"}, "parentProduct": {"href": "/mdr/adam/adamig-1-0", "title": "Analysis Data Model Implementation Guide Version 1.0", "type": "Implementation Guide"}, "parentVariableSet": {"href": "/mdr/adam/adamig-1-0/datastructures/ADSL/varsets/TreatmentVariables", "title": "Treatment Variables", "type": "Variable Set"}, "self": {"href": "/mdr/adam/adamig-1-0/datastructures/ADSL/variables/TRxxAGyN", "title": "Actual Pooled Trt y for Period xx (N)", "type": "Analysis Variable"}}, "core": "Perm", "description": "The numeric code for TRxxAGy. One-to-one map to TRxxAGy.", "label": "Actual Pooled Trt y for Period xx (N)", "name": "TRxxAGyN", "ordinal": "32", "simpleDatatype": "Char"}], "label": "Treatment Variables", "name": "Treatment Variables", "ordinal": "4"}, {"_links": {"parentDatastructure": {"href": "/mdr/adam/adamig-1-0/datastructures/ADSL", "title": "Subject-Level Analysis Dataset Structure", "type": "Data Structure"}, "parentProduct": {"href": "/mdr/adam/adamig-1-0", "title": "Analysis Data Model Implementation Guide Version 1.0", "type": "Implementation Guide"}, "self": {"href": "/mdr/adam/adamig-1-0/datastructures/ADSL/varsets/TrialDates", "title": "Trial Dates", "type": "Variable Set"}}, "analysisVariables": [{"_links": {"parentDatastructure": {"href": "/mdr/adam/adamig-1-0/datastructures/ADSL", "title": "Subject-Level Analysis Dataset Structure", "type": "Data Structure"}, "parentProduct": {"href": "/mdr/adam/adamig-1-0", "title": "Analysis Data Model Implementation Guide Version 1.0", "type": "Implementation Guide"}, "parentVariableSet": {"href": "/mdr/adam/adamig-1-0/datastructures/ADSL/varsets/TrialDates", "title": "Trial Dates", "type": "Variable Set"}, "self": {"href": "/mdr/adam/adamig-1-0/datastructures/ADSL/variables/RANDDT", "title": "Date of Randomization", "type": "Analysis Variable"}}, "core": "Cond", "description": "Required in randomized trials", "label": "Date of Randomization", "name": "RANDDT", "ordinal": "33", "simpleDatatype": "Num"}, {"_links": {"parentDatastructure": {"href": "/mdr/adam/adamig-1-0/datastructures/ADSL", "title": "Subject-Level Analysis Dataset Structure", "type": "Data Structure"}, "parentProduct": {"href": "/mdr/adam/adamig-1-0", "title": "Analysis Data Model Implementation Guide Version 1.0", "type": "Implementation Guide"}, "parentVariableSet": {"href": "/mdr/adam/adamig-1-0/datastructures/ADSL/varsets/TrialDates", "title": "Trial Dates", "type": "Variable Set"}, "self": {"href": "/mdr/adam/adamig-1-0/datastructures/ADSL/variables/TRTSDT", "title": "Date of First Exposure to Treatment", "type": "Analysis Variable"}}, "core": "Cond", "description": "Date of first exposure to treatment for a subject in a study. TRTSDT and/or TRTSDTM are required if there is an investigational product.", "label": "Date of First Exposure to Treatment", "name": "TRTSDT", "ordinal": "34", "simpleDatatype": "Num"}, {"_links": {"parentDatastructure": {"href": "/mdr/adam/adamig-1-0/datastructures/ADSL", "title": "Subject-Level Analysis Dataset Structure", "type": "Data Structure"}, "parentProduct": {"href": "/mdr/adam/adamig-1-0", "title": "Analysis Data Model Implementation Guide Version 1.0", "type": "Implementation Guide"}, "parentVariableSet": {"href": "/mdr/adam/adamig-1-0/datastructures/ADSL/varsets/TrialDates", "title": "Trial Dates", "type": "Variable Set"}, "self": {"href": "/mdr/adam/adamig-1-0/datastructures/ADSL/variables/TRTSTM", "title": "Time of First Exposure to Treatment", "type": "Analysis Variable"}}, "core": "Perm", "description": "Time of first exposure to treatment for a subject in a study.", "label": "Time of First Exposure to Treatment", "name": "TRTSTM", "ordinal": "35", "simpleDatatype": "Num"}, {"_links": {"parentDatastructure": {"href": "/mdr/adam/adamig-1-0/datastructures/ADSL", "title": "Subject-Level Analysis Dataset Structure", "type": "Data Structure"}, "parentProduct": {"href": "/mdr/adam/adamig-1-0", "title": "Analysis Data Model Implementation Guide Version 1.0", "type": "Implementation Guide"}, "parentVariableSet": {"href": "/mdr/adam/adamig-1-0/datastructures/ADSL/varsets/TrialDates", "title": "Trial Dates", "type": "Variable Set"}, "self": {"href": "/mdr/adam/adamig-1-0/datastructures/ADSL/variables/TRTSDTM", "title": "Datetime of First Exposure to Treatment", "type": "Analysis Variable"}}, "core": "Cond", "description": "Datetime of first exposure to treatment for a subject in a study. TRTSDT and/or TRTSDTM are required if there is an investigational product.", "label": "Datetime of First Exposure to Treatment", "name": "TRTSDTM", "ordinal": "36", "simpleDatatype": "Num"}, {"_links": {"codelist": [{"href": "/mdr/root/ct/adamct/codelists/C81223", "title": "Version-agnostic anchor resource for codelist C81223", "type": "Root Value Domain"}], "parentDatastructure": {"href": "/mdr/adam/adamig-1-0/datastructures/ADSL", "title": "Subject-Level Analysis Dataset Structure", "type": "Data Structure"}, "parentProduct": {"href": "/mdr/adam/adamig-1-0", "title": "Analysis Data Model Implementation Guide Version 1.0", "type": "Implementation Guide"}, "parentVariableSet": {"href": "/mdr/adam/adamig-1-0/datastructures/ADSL/varsets/TrialDates", "title": "Trial Dates", "type": "Variable Set"}, "self": {"href": "/mdr/adam/adamig-1-0/datastructures/ADSL/variables/TRTSDTF", "title": "Date of First Exposure Imput. Flag", "type": "Analysis Variable"}}, "codelistSubmissionValues": ["DATEFL"], "core": "Cond", "description": "The level of imputation of date of first exposure to treatment. See General Timing Variable Convention #6.", "label": "Date of First Exposure Imput. Flag", "name": "TRTSDTF", "ordinal": "37", "simpleDatatype": "Char"}, {"_links": {"codelist": [{"href": "/mdr/root/ct/adamct/codelists/C81226", "title": "Version-agnostic anchor resource for codelist C81226", "type": "Root Value Domain"}], "parentDatastructure": {"href": "/mdr/adam/adamig-1-0/datastructures/ADSL", "title": "Subject-Level Analysis Dataset Structure", "type": "Data Structure"}, "parentProduct": {"href": "/mdr/adam/adamig-1-0", "title": "Analysis Data Model Implementation Guide Version 1.0", "type": "Implementation Guide"}, "parentVariableSet": {"href": "/mdr/adam/adamig-1-0/datastructures/ADSL/varsets/TrialDates", "title": "Trial Dates", "type": "Variable Set"}, "self": {"href": "/mdr/adam/adamig-1-0/datastructures/ADSL/variables/TRTSTMF", "title": "Time of First Exposure Imput. Flag", "type": "Analysis Variable"}}, "codelistSubmissionValues": ["TIMEFL"], "core": "Cond", "description": "The level of imputation of time of first exposure to treatment. See General Timing Variable Convention #7.", "label": "Time of First Exposure Imput. Flag", "name": "TRTSTMF", "ordinal": "38", "simpleDatatype": "Char"}, {"_links": {"parentDatastructure": {"href": "/mdr/adam/adamig-1-0/datastructures/ADSL", "title": "Subject-Level Analysis Dataset Structure", "type": "Data Structure"}, "parentProduct": {"href": "/mdr/adam/adamig-1-0", "title": "Analysis Data Model Implementation Guide Version 1.0", "type": "Implementation Guide"}, "parentVariableSet": {"href": "/mdr/adam/adamig-1-0/datastructures/ADSL/varsets/TrialDates", "title": "Trial Dates", "type": "Variable Set"}, "self": {"href": "/mdr/adam/adamig-1-0/datastructures/ADSL/variables/TRTEDT", "title": "Date of Last Exposure to Treatment", "type": "Analysis Variable"}}, "core": "Cond", "description": "Date of last exposure to treatment for a subject in a study. TRTEDT and/or TRTEDTM are required if there is an investigational product.", "label": "Date of Last Exposure to Treatment", "name": "TRTEDT", "ordinal": "39", "simpleDatatype": "Num"}, {"_links": {"parentDatastructure": {"href": "/mdr/adam/adamig-1-0/datastructures/ADSL", "title": "Subject-Level Analysis Dataset Structure", "type": "Data Structure"}, "parentProduct": {"href": "/mdr/adam/adamig-1-0", "title": "Analysis Data Model Implementation Guide Version 1.0", "type": "Implementation Guide"}, "parentVariableSet": {"href": "/mdr/adam/adamig-1-0/datastructures/ADSL/varsets/TrialDates", "title": "Trial Dates", "type": "Variable Set"}, "self": {"href": "/mdr/adam/adamig-1-0/datastructures/ADSL/variables/TRTETM", "title": "Time of Last Exposure to Treatment", "type": "Analysis Variable"}}, "core": "Perm", "description": "Time of last exposure to treatment for a subject in a study.", "label": "Time of Last Exposure to Treatment", "name": "TRTETM", "ordinal": "40", "simpleDatatype": "Num"}, {"_links": {"parentDatastructure": {"href": "/mdr/adam/adamig-1-0/datastructures/ADSL", "title": "Subject-Level Analysis Dataset Structure", "type": "Data Structure"}, "parentProduct": {"href": "/mdr/adam/adamig-1-0", "title": "Analysis Data Model Implementation Guide Version 1.0", "type": "Implementation Guide"}, "parentVariableSet": {"href": "/mdr/adam/adamig-1-0/datastructures/ADSL/varsets/TrialDates", "title": "Trial Dates", "type": "Variable Set"}, "self": {"href": "/mdr/adam/adamig-1-0/datastructures/ADSL/variables/TRTEDTM", "title": "Datetime of Last Exposure to Treatment", "type": "Analysis Variable"}}, "core": "Cond", "description": "Datetime of last exposure to treatment for a subject in a study. TRTEDT and/or TRTEDTM are required if there is an investigational product.", "label": "Datetime of Last Exposure to Treatment", "name": "TRTEDTM", "ordinal": "41", "simpleDatatype": "Num"}, {"_links": {"codelist": [{"href": "/mdr/root/ct/adamct/codelists/C81223", "title": "Version-agnostic anchor resource for codelist C81223", "type": "Root Value Domain"}], "parentDatastructure": {"href": "/mdr/adam/adamig-1-0/datastructures/ADSL", "title": "Subject-Level Analysis Dataset Structure", "type": "Data Structure"}, "parentProduct": {"href": "/mdr/adam/adamig-1-0", "title": "Analysis Data Model Implementation Guide Version 1.0", "type": "Implementation Guide"}, "parentVariableSet": {"href": "/mdr/adam/adamig-1-0/datastructures/ADSL/varsets/TrialDates", "title": "Trial Dates", "type": "Variable Set"}, "self": {"href": "/mdr/adam/adamig-1-0/datastructures/ADSL/variables/TRTEDTF", "title": "Date of Last Exposure Imput. Flag", "type": "Analysis Variable"}}, "codelistSubmissionValues": ["DATEFL"], "core": "Cond", "description": "The level of imputation of date of last exposure to treatment. See General Timing Variable Convention #6.", "label": "Date of Last Exposure Imput. Flag", "name": "TRTEDTF", "ordinal": "42", "simpleDatatype": "Char"}, {"_links": {"codelist": [{"href": "/mdr/root/ct/adamct/codelists/C81226", "title": "Version-agnostic anchor resource for codelist C81226", "type": "Root Value Domain"}], "parentDatastructure": {"href": "/mdr/adam/adamig-1-0/datastructures/ADSL", "title": "Subject-Level Analysis Dataset Structure", "type": "Data Structure"}, "parentProduct": {"href": "/mdr/adam/adamig-1-0", "title": "Analysis Data Model Implementation Guide Version 1.0", "type": "Implementation Guide"}, "parentVariableSet": {"href": "/mdr/adam/adamig-1-0/datastructures/ADSL/varsets/TrialDates", "title": "Trial Dates", "type": "Variable Set"}, "self": {"href": "/mdr/adam/adamig-1-0/datastructures/ADSL/variables/TRTETMF", "title": "Time of Last Exposure Imput. Flag", "type": "Analysis Variable"}}, "codelistSubmissionValues": ["TIMEFL"], "core": "Cond", "description": "The level of imputation of time of last exposure to treatment. See General Timing Variable Convention #7.", "label": "Time of Last Exposure Imput. Flag", "name": "TRTETMF", "ordinal": "43", "simpleDatatype": "Char"}, {"_links": {"parentDatastructure": {"href": "/mdr/adam/adamig-1-0/datastructures/ADSL", "title": "Subject-Level Analysis Dataset Structure", "type": "Data Structure"}, "parentProduct": {"href": "/mdr/adam/adamig-1-0", "title": "Analysis Data Model Implementation Guide Version 1.0", "type": "Implementation Guide"}, "parentVariableSet": {"href": "/mdr/adam/adamig-1-0/datastructures/ADSL/varsets/TrialDates", "title": "Trial Dates", "type": "Variable Set"}, "self": {"href": "/mdr/adam/adamig-1-0/datastructures/ADSL/variables/TRxxSDT", "title": "Date of First Exposure in Period xx", "type": "Analysis Variable"}}, "core": "Cond", "description": "Date of first exposure to treatment in period xx. TRxxSDT and/or TRxxSDTM is required in trial designs where multiple treatments are given to the same subject, such as a crossover design. Also useful in designs where multiple periods exist for the same treatment (i.e., multiple cycles of the same study treatment).", "label": "Date of First Exposure in Period xx", "name": "TRxxSDT", "ordinal": "44", "simpleDatatype": "Num"}, {"_links": {"parentDatastructure": {"href": "/mdr/adam/adamig-1-0/datastructures/ADSL", "title": "Subject-Level Analysis Dataset Structure", "type": "Data Structure"}, "parentProduct": {"href": "/mdr/adam/adamig-1-0", "title": "Analysis Data Model Implementation Guide Version 1.0", "type": "Implementation Guide"}, "parentVariableSet": {"href": "/mdr/adam/adamig-1-0/datastructures/ADSL/varsets/TrialDates", "title": "Trial Dates", "type": "Variable Set"}, "self": {"href": "/mdr/adam/adamig-1-0/datastructures/ADSL/variables/TRxxSTM", "title": "Time of First Exposure in Period xx", "type": "Analysis Variable"}}, "core": "Cond", "description": "The starting time of exposure in period xx. TRxxSTM and/or TRxxSDTM are required in trial designs where multiple treatments are given to the same subject, such as a crossover design, and time is important to the analysis.", "label": "Time of First Exposure in Period xx", "name": "TRxxSTM", "ordinal": "45", "simpleDatatype": "Num"}, {"_links": {"parentDatastructure": {"href": "/mdr/adam/adamig-1-0/datastructures/ADSL", "title": "Subject-Level Analysis Dataset Structure", "type": "Data Structure"}, "parentProduct": {"href": "/mdr/adam/adamig-1-0", "title": "Analysis Data Model Implementation Guide Version 1.0", "type": "Implementation Guide"}, "parentVariableSet": {"href": "/mdr/adam/adamig-1-0/datastructures/ADSL/varsets/TrialDates", "title": "Trial Dates", "type": "Variable Set"}, "self": {"href": "/mdr/adam/adamig-1-0/datastructures/ADSL/variables/TRxxSDTM", "title": "Datetime of First Exposure in Period xx", "type": "Analysis Variable"}}, "core": "Cond", "description": "Datetime of first exposure to treatment in period xx. TRxxSDT and/or TRxxSDTM are required in trial designs where multiple treatments are given to the same subject, such as a crossover design.", "label": "Datetime of First Exposure in Period xx", "name": "TRxxSDTM", "ordinal": "46", "simpleDatatype": "Num"}, {"_links": {"codelist": [{"href": "/mdr/root/ct/adamct/codelists/C81223", "title": "Version-agnostic anchor resource for codelist C81223", "type": "Root Value Domain"}], "parentDatastructure": {"href": "/mdr/adam/adamig-1-0/datastructures/ADSL", "title": "Subject-Level Analysis Dataset Structure", "type": "Data Structure"}, "parentProduct": {"href": "/mdr/adam/adamig-1-0", "title": "Analysis Data Model Implementation Guide Version 1.0", "type": "Implementation Guide"}, "parentVariableSet": {"href": "/mdr/adam/adamig-1-0/datastructures/ADSL/varsets/TrialDates", "title": "Trial Dates", "type": "Variable Set"}, "self": {"href": "/mdr/adam/adamig-1-0/datastructures/ADSL/variables/TRxxSDTF", "title": "Date 1st Exposure Period xx Imput. Flag", "type": "Analysis Variable"}}, "codelistSubmissionValues": ["DATEFL"], "core": "Cond", "description": "The level of imputation of date of first exposure to treatment in period xx. See General Timing Variable Convention #6.", "label": "Date 1st Exposure Period xx Imput. Flag", "name": "TRxxSDTF", "ordinal": "47", "simpleDatatype": "Char"}, {"_links": {"codelist": [{"href": "/mdr/root/ct/adamct/codelists/C81226", "title": "Version-agnostic anchor resource for codelist C81226", "type": "Root Value Domain"}], "parentDatastructure": {"href": "/mdr/adam/adamig-1-0/datastructures/ADSL", "title": "Subject-Level Analysis Dataset Structure", "type": "Data Structure"}, "parentProduct": {"href": "/mdr/adam/adamig-1-0", "title": "Analysis Data Model Implementation Guide Version 1.0", "type": "Implementation Guide"}, "parentVariableSet": {"href": "/mdr/adam/adamig-1-0/datastructures/ADSL/varsets/TrialDates", "title": "Trial Dates", "type": "Variable Set"}, "self": {"href": "/mdr/adam/adamig-1-0/datastructures/ADSL/variables/TRxxSTMF", "title": "Time 1st Exposure Period xx Imput. Flag", "type": "Analysis Variable"}}, "codelistSubmissionValues": ["TIMEFL"], "core": "Cond", "description": "The level of imputation of time of first exposure in period xx. See General Timing Variable Convention #7.", "label": "Time 1st Exposure Period xx Imput. Flag", "name": "TRxxSTMF", "ordinal": "48", "simpleDatatype": "Char"}, {"_links": {"parentDatastructure": {"href": "/mdr/adam/adamig-1-0/datastructures/ADSL", "title": "Subject-Level Analysis Dataset Structure", "type": "Data Structure"}, "parentProduct": {"href": "/mdr/adam/adamig-1-0", "title": "Analysis Data Model Implementation Guide Version 1.0", "type": "Implementation Guide"}, "parentVariableSet": {"href": "/mdr/adam/adamig-1-0/datastructures/ADSL/varsets/TrialDates", "title": "Trial Dates", "type": "Variable Set"}, "self": {"href": "/mdr/adam/adamig-1-0/datastructures/ADSL/variables/TRxxEDT", "title": "Date of Last Exposure in Period xx", "type": "Analysis Variable"}}, "core": "Cond", "description": "Date of last exposure in period xx. TRxxEDT and/or TRxxEDTM are required in trial designs where multiple treatments are given to the same subject, such as a crossover design.", "label": "Date of Last Exposure in Period xx", "name": "TRxxEDT", "ordinal": "49", "simpleDatatype": "Num"}, {"_links": {"parentDatastructure": {"href": "/mdr/adam/adamig-1-0/datastructures/ADSL", "title": "Subject-Level Analysis Dataset Structure", "type": "Data Structure"}, "parentProduct": {"href": "/mdr/adam/adamig-1-0", "title": "Analysis Data Model Implementation Guide Version 1.0", "type": "Implementation Guide"}, "parentVariableSet": {"href": "/mdr/adam/adamig-1-0/datastructures/ADSL/varsets/TrialDates", "title": "Trial Dates", "type": "Variable Set"}, "self": {"href": "/mdr/adam/adamig-1-0/datastructures/ADSL/variables/TRxxETM", "title": "Time of Last Exposure in Period xx", "type": "Analysis Variable"}}, "core": "Cond", "description": "The ending time of exposure in period xx. TRxxETM and/or TRxxEDTM are required in trial designs where multiple treatments are given to the same subject, such as a crossover design, and ending time is important to the analysis.", "label": "Time of Last Exposure in Period xx", "name": "TRxxETM", "ordinal": "50", "simpleDatatype": "Num"}, {"_links": {"parentDatastructure": {"href": "/mdr/adam/adamig-1-0/datastructures/ADSL", "title": "Subject-Level Analysis Dataset Structure", "type": "Data Structure"}, "parentProduct": {"href": "/mdr/adam/adamig-1-0", "title": "Analysis Data Model Implementation Guide Version 1.0", "type": "Implementation Guide"}, "parentVariableSet": {"href": "/mdr/adam/adamig-1-0/datastructures/ADSL/varsets/TrialDates", "title": "Trial Dates", "type": "Variable Set"}, "self": {"href": "/mdr/adam/adamig-1-0/datastructures/ADSL/variables/TRxxEDTM", "title": "Datetime of Last Exposure in Period xx", "type": "Analysis Variable"}}, "core": "Cond", "description": "The datetime of last exposure to treatment in period xx. TRxxEDT and/or TRxxEDTM are required in trial designs where multiple treatments are given to the same subject, such as a crossover design.", "label": "Datetime of Last Exposure in Period xx", "name": "TRxxEDTM", "ordinal": "51", "simpleDatatype": "Num"}, {"_links": {"codelist": [{"href": "/mdr/root/ct/adamct/codelists/C81223", "title": "Version-agnostic anchor resource for codelist C81223", "type": "Root Value Domain"}], "parentDatastructure": {"href": "/mdr/adam/adamig-1-0/datastructures/ADSL", "title": "Subject-Level Analysis Dataset Structure", "type": "Data Structure"}, "parentProduct": {"href": "/mdr/adam/adamig-1-0", "title": "Analysis Data Model Implementation Guide Version 1.0", "type": "Implementation Guide"}, "parentVariableSet": {"href": "/mdr/adam/adamig-1-0/datastructures/ADSL/varsets/TrialDates", "title": "Trial Dates", "type": "Variable Set"}, "self": {"href": "/mdr/adam/adamig-1-0/datastructures/ADSL/variables/TRxxEDTF", "title": "Date Last Exposure Period xx Imput. Flag", "type": "Analysis Variable"}}, "codelistSubmissionValues": ["DATEFL"], "core": "Cond", "description": "The level of imputation of date of last exposure in period xx. See General Timing Variable Convention #6.", "label": "Date Last Exposure Period xx Imput. Flag", "name": "TRxxEDTF", "ordinal": "52", "simpleDatatype": "Char"}, {"_links": {"codelist": [{"href": "/mdr/root/ct/adamct/codelists/C81226", "title": "Version-agnostic anchor resource for codelist C81226", "type": "Root Value Domain"}], "parentDatastructure": {"href": "/mdr/adam/adamig-1-0/datastructures/ADSL", "title": "Subject-Level Analysis Dataset Structure", "type": "Data Structure"}, "parentProduct": {"href": "/mdr/adam/adamig-1-0", "title": "Analysis Data Model Implementation Guide Version 1.0", "type": "Implementation Guide"}, "parentVariableSet": {"href": "/mdr/adam/adamig-1-0/datastructures/ADSL/varsets/TrialDates", "title": "Trial Dates", "type": "Variable Set"}, "self": {"href": "/mdr/adam/adamig-1-0/datastructures/ADSL/variables/TRxxETMF", "title": "Time Last Exposure Period xx Imput. Flag", "type": "Analysis Variable"}}, "codelistSubmissionValues": ["TIMEFL"], "core": "Cond", "description": "The level of imputation of time of last exposure in period xx. See General Timing Variable Convention #7.", "label": "Time Last Exposure Period xx Imput. Flag", "name": "TRxxETMF", "ordinal": "53", "simpleDatatype": "Char"}, {"_links": {"parentDatastructure": {"href": "/mdr/adam/adamig-1-0/datastructures/ADSL", "title": "Subject-Level Analysis Dataset Structure", "type": "Data Structure"}, "parentProduct": {"href": "/mdr/adam/adamig-1-0", "title": "Analysis Data Model Implementation Guide Version 1.0", "type": "Implementation Guide"}, "parentVariableSet": {"href": "/mdr/adam/adamig-1-0/datastructures/ADSL/varsets/TrialDates", "title": "Trial Dates", "type": "Variable Set"}, "self": {"href": "/mdr/adam/adamig-1-0/datastructures/ADSL/variables/APxxSDT", "title": "Period xx Start Date", "type": "Analysis Variable"}}, "core": "Perm", "description": "The starting date of period xx.", "label": "Period xx Start Date", "name": "APxxSDT", "ordinal": "54", "simpleDatatype": "Num"}, {"_links": {"parentDatastructure": {"href": "/mdr/adam/adamig-1-0/datastructures/ADSL", "title": "Subject-Level Analysis Dataset Structure", "type": "Data Structure"}, "parentProduct": {"href": "/mdr/adam/adamig-1-0", "title": "Analysis Data Model Implementation Guide Version 1.0", "type": "Implementation Guide"}, "parentVariableSet": {"href": "/mdr/adam/adamig-1-0/datastructures/ADSL/varsets/TrialDates", "title": "Trial Dates", "type": "Variable Set"}, "self": {"href": "/mdr/adam/adamig-1-0/datastructures/ADSL/variables/APxxSTM", "title": "Period xx Start Time", "type": "Analysis Variable"}}, "core": "Perm", "description": "The starting time of period xx.", "label": "Period xx Start Time", "name": "APxxSTM", "ordinal": "55", "simpleDatatype": "Num"}, {"_links": {"parentDatastructure": {"href": "/mdr/adam/adamig-1-0/datastructures/ADSL", "title": "Subject-Level Analysis Dataset Structure", "type": "Data Structure"}, "parentProduct": {"href": "/mdr/adam/adamig-1-0", "title": "Analysis Data Model Implementation Guide Version 1.0", "type": "Implementation Guide"}, "parentVariableSet": {"href": "/mdr/adam/adamig-1-0/datastructures/ADSL/varsets/TrialDates", "title": "Trial Dates", "type": "Variable Set"}, "self": {"href": "/mdr/adam/adamig-1-0/datastructures/ADSL/variables/APxxSDTM", "title": "Period xx Start Datetime", "type": "Analysis Variable"}}, "core": "Perm", "description": "The starting datetime of period xx.", "label": "Period xx Start Datetime", "name": "APxxSDTM", "ordinal": "56", "simpleDatatype": "Num"}, {"_links": {"codelist": [{"href": "/mdr/root/ct/adamct/codelists/C81223", "title": "Version-agnostic anchor resource for codelist C81223", "type": "Root Value Domain"}], "parentDatastructure": {"href": "/mdr/adam/adamig-1-0/datastructures/ADSL", "title": "Subject-Level Analysis Dataset Structure", "type": "Data Structure"}, "parentProduct": {"href": "/mdr/adam/adamig-1-0", "title": "Analysis Data Model Implementation Guide Version 1.0", "type": "Implementation Guide"}, "parentVariableSet": {"href": "/mdr/adam/adamig-1-0/datastructures/ADSL/varsets/TrialDates", "title": "Trial Dates", "type": "Variable Set"}, "self": {"href": "/mdr/adam/adamig-1-0/datastructures/ADSL/variables/APxxSDTF", "title": "Period xx Start Date Imput. Flag", "type": "Analysis Variable"}}, "codelistSubmissionValues": ["DATEFL"], "core": "Cond", "description": "The level of imputation of period xx start date. See General Timing Variable Convention #6.", "label": "Period xx Start Date Imput. Flag", "name": "APxxSDTF", "ordinal": "57", "simpleDatatype": "Char"}, {"_links": {"codelist": [{"href": "/mdr/root/ct/adamct/codelists/C81226", "title": "Version-agnostic anchor resource for codelist C81226", "type": "Root Value Domain"}], "parentDatastructure": {"href": "/mdr/adam/adamig-1-0/datastructures/ADSL", "title": "Subject-Level Analysis Dataset Structure", "type": "Data Structure"}, "parentProduct": {"href": "/mdr/adam/adamig-1-0", "title": "Analysis Data Model Implementation Guide Version 1.0", "type": "Implementation Guide"}, "parentVariableSet": {"href": "/mdr/adam/adamig-1-0/datastructures/ADSL/varsets/TrialDates", "title": "Trial Dates", "type": "Variable Set"}, "self": {"href": "/mdr/adam/adamig-1-0/datastructures/ADSL/variables/APxxSTMF", "title": "Period xx Start Time Imput. Flag", "type": "Analysis Variable"}}, "codelistSubmissionValues": ["TIMEFL"], "core": "Cond", "description": "The level of imputation of period xx start time. See General Timing Variable Convention #7.", "label": "Period xx Start Time Imput. Flag", "name": "APxxSTMF", "ordinal": "58", "simpleDatatype": "Char"}, {"_links": {"parentDatastructure": {"href": "/mdr/adam/adamig-1-0/datastructures/ADSL", "title": "Subject-Level Analysis Dataset Structure", "type": "Data Structure"}, "parentProduct": {"href": "/mdr/adam/adamig-1-0", "title": "Analysis Data Model Implementation Guide Version 1.0", "type": "Implementation Guide"}, "parentVariableSet": {"href": "/mdr/adam/adamig-1-0/datastructures/ADSL/varsets/TrialDates", "title": "Trial Dates", "type": "Variable Set"}, "self": {"href": "/mdr/adam/adamig-1-0/datastructures/ADSL/variables/APxxEDT", "title": "Period xx End Date", "type": "Analysis Variable"}}, "core": "Perm", "description": "The ending date of period xx.", "label": "Period xx End Date", "name": "APxxEDT", "ordinal": "59", "simpleDatatype": "Num"}, {"_links": {"parentDatastructure": {"href": "/mdr/adam/adamig-1-0/datastructures/ADSL", "title": "Subject-Level Analysis Dataset Structure", "type": "Data Structure"}, "parentProduct": {"href": "/mdr/adam/adamig-1-0", "title": "Analysis Data Model Implementation Guide Version 1.0", "type": "Implementation Guide"}, "parentVariableSet": {"href": "/mdr/adam/adamig-1-0/datastructures/ADSL/varsets/TrialDates", "title": "Trial Dates", "type": "Variable Set"}, "self": {"href": "/mdr/adam/adamig-1-0/datastructures/ADSL/variables/APxxETM", "title": "Period xx End Time", "type": "Analysis Variable"}}, "core": "Perm", "description": "The ending time of period xx.", "label": "Period xx End Time", "name": "APxxETM", "ordinal": "60", "simpleDatatype": "Num"}, {"_links": {"parentDatastructure": {"href": "/mdr/adam/adamig-1-0/datastructures/ADSL", "title": "Subject-Level Analysis Dataset Structure", "type": "Data Structure"}, "parentProduct": {"href": "/mdr/adam/adamig-1-0", "title": "Analysis Data Model Implementation Guide Version 1.0", "type": "Implementation Guide"}, "parentVariableSet": {"href": "/mdr/adam/adamig-1-0/datastructures/ADSL/varsets/TrialDates", "title": "Trial Dates", "type": "Variable Set"}, "self": {"href": "/mdr/adam/adamig-1-0/datastructures/ADSL/variables/APxxEDTM", "title": "Period xx End Date/Time", "type": "Analysis Variable"}}, "core": "Perm", "description": "The ending datetime of period xx.", "label": "Period xx End Date/Time", "name": "APxxEDTM", "ordinal": "61", "simpleDatatype": "Num"}, {"_links": {"codelist": [{"href": "/mdr/root/ct/adamct/codelists/C81223", "title": "Version-agnostic anchor resource for codelist C81223", "type": "Root Value Domain"}], "parentDatastructure": {"href": "/mdr/adam/adamig-1-0/datastructures/ADSL", "title": "Subject-Level Analysis Dataset Structure", "type": "Data Structure"}, "parentProduct": {"href": "/mdr/adam/adamig-1-0", "title": "Analysis Data Model Implementation Guide Version 1.0", "type": "Implementation Guide"}, "parentVariableSet": {"href": "/mdr/adam/adamig-1-0/datastructures/ADSL/varsets/TrialDates", "title": "Trial Dates", "type": "Variable Set"}, "self": {"href": "/mdr/adam/adamig-1-0/datastructures/ADSL/variables/APxxEDTF", "title": "Period xx End Date Imput. Flag", "type": "Analysis Variable"}}, "codelistSubmissionValues": ["DATEFL"], "core": "Cond", "description": "The level of imputation of period xx end date. See General Timing Variable Convention #6.", "label": "Period xx End Date Imput. Flag", "name": "APxxEDTF", "ordinal": "62", "simpleDatatype": "Char"}, {"_links": {"codelist": [{"href": "/mdr/root/ct/adamct/codelists/C81226", "title": "Version-agnostic anchor resource for codelist C81226", "type": "Root Value Domain"}], "parentDatastructure": {"href": "/mdr/adam/adamig-1-0/datastructures/ADSL", "title": "Subject-Level Analysis Dataset Structure", "type": "Data Structure"}, "parentProduct": {"href": "/mdr/adam/adamig-1-0", "title": "Analysis Data Model Implementation Guide Version 1.0", "type": "Implementation Guide"}, "parentVariableSet": {"href": "/mdr/adam/adamig-1-0/datastructures/ADSL/varsets/TrialDates", "title": "Trial Dates", "type": "Variable Set"}, "self": {"href": "/mdr/adam/adamig-1-0/datastructures/ADSL/variables/APxxETMF", "title": "Period End Time Imput. Flag", "type": "Analysis Variable"}}, "codelistSubmissionValues": ["TIMEFL"], "core": "Cond", "description": "The level of imputation of period xx end time. See General Timing Variable Convention #7.", "label": "Period End Time Imput. Flag", "name": "APxxETMF", "ordinal": "63", "simpleDatatype": "Char"}], "label": "Trial Dates", "name": "Trial Dates", "ordinal": "5"}], "class": "ADSL", "description": "One record per subject.", "label": "Subject-Level Analysis Dataset Structure", "name": "ADSL", "ordinal": "1"}, {"_links": {"parentProduct": {"href": "/mdr/adam/adamig-1-0", "title": "Analysis Data Model Implementation Guide Version 1.0", "type": "Implementation Guide"}, "self": {"href": "/mdr/adam/adamig-1-0/datastructures/BDS", "title": "Basic Data Structure", "type": "Data Structure"}}, "analysisVariableSets": [{"_links": {"parentDatastructure": {"href": "/mdr/adam/adamig-1-0/datastructures/BDS", "title": "Basic Data Structure", "type": "Data Structure"}, "parentProduct": {"href": "/mdr/adam/adamig-1-0", "title": "Analysis Data Model Implementation Guide Version 1.0", "type": "Implementation Guide"}, "self": {"href": "/mdr/adam/adamig-1-0/datastructures/BDS/varsets/SubjectIdentifierVariable", "title": "Subject Identifier Variable", "type": "Variable Set"}}, "analysisVariables": [{"_links": {"parentDatastructure": {"href": "/mdr/adam/adamig-1-0/datastructures/BDS", "title": "Basic Data Structure", "type": "Data Structure"}, "parentProduct": {"href": "/mdr/adam/adamig-1-0", "title": "Analysis Data Model Implementation Guide Version 1.0", "type": "Implementation Guide"}, "parentVariableSet": {"href": "/mdr/adam/adamig-1-0/datastructures/BDS/varsets/SubjectIdentifierVariable", "title": "Subject Identifier Variable", "type": "Variable Set"}, "self": {"href": "/mdr/adam/adamig-1-0/datastructures/BDS/variables/STUDYID", "title": "Study Identifier", "type": "Analysis Variable"}}, "core": "Req", "description": "SDTM DM.STUDYID", "label": "Study Identifier", "name": "STUDYID", "ordinal": "1", "simpleDatatype": "Char"}, {"_links": {"parentDatastructure": {"href": "/mdr/adam/adamig-1-0/datastructures/BDS", "title": "Basic Data Structure", "type": "Data Structure"}, "parentProduct": {"href": "/mdr/adam/adamig-1-0", "title": "Analysis Data Model Implementation Guide Version 1.0", "type": "Implementation Guide"}, "parentVariableSet": {"href": "/mdr/adam/adamig-1-0/datastructures/BDS/varsets/SubjectIdentifierVariable", "title": "Subject Identifier Variable", "type": "Variable Set"}, "self": {"href": "/mdr/adam/adamig-1-0/datastructures/BDS/variables/USUBJID", "title": "Unique Subject Identifier", "type": "Analysis Variable"}}, "core": "Req", "description": "SDTM DM.USUBJID", "label": "Unique Subject Identifier", "name": "USUBJID", "ordinal": "2", "simpleDatatype": "Char"}, {"_links": {"parentDatastructure": {"href": "/mdr/adam/adamig-1-0/datastructures/BDS", "title": "Basic Data Structure", "type": "Data Structure"}, "parentProduct": {"href": "/mdr/adam/adamig-1-0", "title": "Analysis Data Model Implementation Guide Version 1.0", "type": "Implementation Guide"}, "parentVariableSet": {"href": "/mdr/adam/adamig-1-0/datastructures/BDS/varsets/SubjectIdentifierVariable", "title": "Subject Identifier Variable", "type": "Variable Set"}, "self": {"href": "/mdr/adam/adamig-1-0/datastructures/BDS/variables/SUBJID", "title": "Subject Identifier for the Study", "type": "Analysis Variable"}}, "core": "Perm", "description": "SDTM DM.SUBJID. SUBJID is required in ADSL, but permissible in other datasets.", "label": "Subject Identifier for the Study", "name": "SUBJID", "ordinal": "3", "simpleDatatype": "Char"}, {"_links": {"parentDatastructure": {"href": "/mdr/adam/adamig-1-0/datastructures/BDS", "title": "Basic Data Structure", "type": "Data Structure"}, "parentProduct": {"href": "/mdr/adam/adamig-1-0", "title": "Analysis Data Model Implementation Guide Version 1.0", "type": "Implementation Guide"}, "parentVariableSet": {"href": "/mdr/adam/adamig-1-0/datastructures/BDS/varsets/SubjectIdentifierVariable", "title": "Subject Identifier Variable", "type": "Variable Set"}, "self": {"href": "/mdr/adam/adamig-1-0/datastructures/BDS/variables/SITEID", "title": "Study Site Identifier", "type": "Analysis Variable"}}, "core": "Perm", "description": "SDTM DM.SITEID. SITEID is required in ADSL, but permissible in other datasets.", "label": "Study Site Identifier", "name": "SITEID", "ordinal": "4", "simpleDatatype": "Char"}], "label": "Subject Identifier Variable", "name": "Subject Identifier Variable", "ordinal": "1"}, {"_links": {"parentDatastructure": {"href": "/mdr/adam/adamig-1-0/datastructures/BDS", "title": "Basic Data Structure", "type": "Data Structure"}, "parentProduct": {"href": "/mdr/adam/adamig-1-0", "title": "Analysis Data Model Implementation Guide Version 1.0", "type": "Implementation Guide"}, "self": {"href": "/mdr/adam/adamig-1-0/datastructures/BDS/varsets/TreatmentVariables", "title": "Treatment Variables", "type": "Variable Set"}}, "analysisVariables": [{"_links": {"parentDatastructure": {"href": "/mdr/adam/adamig-1-0/datastructures/BDS", "title": "Basic Data Structure", "type": "Data Structure"}, "parentProduct": {"href": "/mdr/adam/adamig-1-0", "title": "Analysis Data Model Implementation Guide Version 1.0", "type": "Implementation Guide"}, "parentVariableSet": {"href": "/mdr/adam/adamig-1-0/datastructures/BDS/varsets/TreatmentVariables", "title": "Treatment Variables", "type": "Variable Set"}, "self": {"href": "/mdr/adam/adamig-1-0/datastructures/BDS/variables/TRTP", "title": "Planned Treatment", "type": "Analysis Variable"}}, "core": "Req", "description": "TRTP is a record-level identifier that represents the planned treatment attributed to a record for analysis purposes. TRTP indicates how treatment varies by record within a subject and enables analysis of crossover and other designs. TRTxxP (copied from ADSL) may also be needed for some analysis purposes, and may be useful for traceability and to provide context.", "label": "Planned Treatment", "name": "TRTP", "ordinal": "5", "simpleDatatype": "Char"}, {"_links": {"parentDatastructure": {"href": "/mdr/adam/adamig-1-0/datastructures/BDS", "title": "Basic Data Structure", "type": "Data Structure"}, "parentProduct": {"href": "/mdr/adam/adamig-1-0", "title": "Analysis Data Model Implementation Guide Version 1.0", "type": "Implementation Guide"}, "parentVariableSet": {"href": "/mdr/adam/adamig-1-0/datastructures/BDS/varsets/TreatmentVariables", "title": "Treatment Variables", "type": "Variable Set"}, "self": {"href": "/mdr/adam/adamig-1-0/datastructures/BDS/variables/TRTPN", "title": "Planned Treatment (N)", "type": "Analysis Variable"}}, "core": "Perm", "description": "The numeric code for TRTP. One-to-one map to TRTP.", "label": "Planned Treatment (N)", "name": "TRTPN", "ordinal": "6", "simpleDatatype": "Num"}, {"_links": {"parentDatastructure": {"href": "/mdr/adam/adamig-1-0/datastructures/BDS", "title": "Basic Data Structure", "type": "Data Structure"}, "parentProduct": {"href": "/mdr/adam/adamig-1-0", "title": "Analysis Data Model Implementation Guide Version 1.0", "type": "Implementation Guide"}, "parentVariableSet": {"href": "/mdr/adam/adamig-1-0/datastructures/BDS/varsets/TreatmentVariables", "title": "Treatment Variables", "type": "Variable Set"}, "self": {"href": "/mdr/adam/adamig-1-0/datastructures/BDS/variables/TRTA", "title": "Actual Treatment", "type": "Analysis Variable"}}, "core": "Cond", "description": "TRTA is a record-level identifier that represents the actual treatment attributed to a record for analysis purposes. TRTA indicates how treatment varies by record within a subject and enables analysis of crossover and other multi-period designs. TRTxxA (copied from ADSL) may also be needed for some analysis purposes, and may be useful for traceability and to provide context. TRTA is required when there is an analysis of data as treated and at least one subject has any data associated with a treatment other than the planned treatment.", "label": "Actual Treatment", "name": "TRTA", "ordinal": "7", "simpleDatatype": "Char"}, {"_links": {"parentDatastructure": {"href": "/mdr/adam/adamig-1-0/datastructures/BDS", "title": "Basic Data Structure", "type": "Data Structure"}, "parentProduct": {"href": "/mdr/adam/adamig-1-0", "title": "Analysis Data Model Implementation Guide Version 1.0", "type": "Implementation Guide"}, "parentVariableSet": {"href": "/mdr/adam/adamig-1-0/datastructures/BDS/varsets/TreatmentVariables", "title": "Treatment Variables", "type": "Variable Set"}, "self": {"href": "/mdr/adam/adamig-1-0/datastructures/BDS/variables/TRTAN", "title": "Actual Treatment (N)", "type": "Analysis Variable"}}, "core": "Perm", "description": "The numeric code for TRTA. One-to-one map to TRTA.", "label": "Actual Treatment (N)", "name": "TRTAN", "ordinal": "8", "simpleDatatype": "Num"}, {"_links": {"parentDatastructure": {"href": "/mdr/adam/adamig-1-0/datastructures/BDS", "title": "Basic Data Structure", "type": "Data Structure"}, "parentProduct": {"href": "/mdr/adam/adamig-1-0", "title": "Analysis Data Model Implementation Guide Version 1.0", "type": "Implementation Guide"}, "parentVariableSet": {"href": "/mdr/adam/adamig-1-0/datastructures/BDS/varsets/TreatmentVariables", "title": "Treatment Variables", "type": "Variable Set"}, "self": {"href": "/mdr/adam/adamig-1-0/datastructures/BDS/variables/TRTPGy", "title": "Planned Pooled Treatment y", "type": "Analysis Variable"}}, "core": "Perm", "description": "Planned pooled treatment y. \"y\" represents an integer [1-9] corresponding to a particular pooling scheme. Useful when planned treatments (TRTP) are pooled together for analysis, for example when all doses of Drug A (TRTPG1=All doses of Drug A) are compared to all doses of Drug B (TRTPG1=All doses of Drug B). Each value of TRTP is pooled within at most one value of TRTPGy. May vary by record within a subject.", "label": "Planned Pooled Treatment y", "name": "TRTPGy", "ordinal": "9", "simpleDatatype": "Char"}, {"_links": {"parentDatastructure": {"href": "/mdr/adam/adamig-1-0/datastructures/BDS", "title": "Basic Data Structure", "type": "Data Structure"}, "parentProduct": {"href": "/mdr/adam/adamig-1-0", "title": "Analysis Data Model Implementation Guide Version 1.0", "type": "Implementation Guide"}, "parentVariableSet": {"href": "/mdr/adam/adamig-1-0/datastructures/BDS/varsets/TreatmentVariables", "title": "Treatment Variables", "type": "Variable Set"}, "self": {"href": "/mdr/adam/adamig-1-0/datastructures/BDS/variables/TRTPGyN", "title": "Planned Pooled Treatment y (N)", "type": "Analysis Variable"}}, "core": "Perm", "description": "The numeric code for TRTPGy. One-to-one map to TRTPGy.", "label": "Planned Pooled Treatment y (N)", "name": "TRTPGyN", "ordinal": "10", "simpleDatatype": "Num"}, {"_links": {"parentDatastructure": {"href": "/mdr/adam/adamig-1-0/datastructures/BDS", "title": "Basic Data Structure", "type": "Data Structure"}, "parentProduct": {"href": "/mdr/adam/adamig-1-0", "title": "Analysis Data Model Implementation Guide Version 1.0", "type": "Implementation Guide"}, "parentVariableSet": {"href": "/mdr/adam/adamig-1-0/datastructures/BDS/varsets/TreatmentVariables", "title": "Treatment Variables", "type": "Variable Set"}, "self": {"href": "/mdr/adam/adamig-1-0/datastructures/BDS/variables/TRTAGy", "title": "Actual Pooled Treatment y", "type": "Analysis Variable"}}, "core": "Cond", "description": "Actual pooled treatment y. \"y\" represents an integer [1-9] corresponding to a particular pooling scheme. Required when TRTPGy is present and TRTA is present. May vary by record within a subject.", "label": "Actual Pooled Treatment y", "name": "TRTAGy", "ordinal": "11", "simpleDatatype": "Char"}, {"_links": {"parentDatastructure": {"href": "/mdr/adam/adamig-1-0/datastructures/BDS", "title": "Basic Data Structure", "type": "Data Structure"}, "parentProduct": {"href": "/mdr/adam/adamig-1-0", "title": "Analysis Data Model Implementation Guide Version 1.0", "type": "Implementation Guide"}, "parentVariableSet": {"href": "/mdr/adam/adamig-1-0/datastructures/BDS/varsets/TreatmentVariables", "title": "Treatment Variables", "type": "Variable Set"}, "self": {"href": "/mdr/adam/adamig-1-0/datastructures/BDS/variables/TRTAGyN", "title": "Actual Pooled Treatment y (N)", "type": "Analysis Variable"}}, "core": "Perm", "description": "The numeric code for TRTAGy. One-to-one map to TRTAGy.", "label": "Actual Pooled Treatment y (N)", "name": "TRTAGyN", "ordinal": "12", "simpleDatatype": "Num"}], "label": "Treatment Variables", "name": "Treatment Variables", "ordinal": "2"}, {"_links": {"parentDatastructure": {"href": "/mdr/adam/adamig-1-0/datastructures/BDS", "title": "Basic Data Structure", "type": "Data Structure"}, "parentProduct": {"href": "/mdr/adam/adamig-1-0", "title": "Analysis Data Model Implementation Guide Version 1.0", "type": "Implementation Guide"}, "self": {"href": "/mdr/adam/adamig-1-0/datastructures/BDS/varsets/TimingVariables", "title": "Timing Variables", "type": "Variable Set"}}, "analysisVariables": [{"_links": {"parentDatastructure": {"href": "/mdr/adam/adamig-1-0/datastructures/BDS", "title": "Basic Data Structure", "type": "Data Structure"}, "parentProduct": {"href": "/mdr/adam/adamig-1-0", "title": "Analysis Data Model Implementation Guide Version 1.0", "type": "Implementation Guide"}, "parentVariableSet": {"href": "/mdr/adam/adamig-1-0/datastructures/BDS/varsets/TimingVariables", "title": "Timing Variables", "type": "Variable Set"}, "self": {"href": "/mdr/adam/adamig-1-0/datastructures/BDS/variables/ADT", "title": "Analysis Date", "type": "Analysis Variable"}}, "core": "Perm", "description": "The date associated with AVAL and/or AVALC in numeric format.", "label": "Analysis Date", "name": "ADT", "ordinal": "13", "simpleDatatype": "Num"}, {"_links": {"parentDatastructure": {"href": "/mdr/adam/adamig-1-0/datastructures/BDS", "title": "Basic Data Structure", "type": "Data Structure"}, "parentProduct": {"href": "/mdr/adam/adamig-1-0", "title": "Analysis Data Model Implementation Guide Version 1.0", "type": "Implementation Guide"}, "parentVariableSet": {"href": "/mdr/adam/adamig-1-0/datastructures/BDS/varsets/TimingVariables", "title": "Timing Variables", "type": "Variable Set"}, "self": {"href": "/mdr/adam/adamig-1-0/datastructures/BDS/variables/ATM", "title": "Analysis Time", "type": "Analysis Variable"}}, "core": "Perm", "description": "The time associated with AVAL and/or AVALC in numeric format.", "label": "Analysis Time", "name": "ATM", "ordinal": "14", "simpleDatatype": "Num"}, {"_links": {"parentDatastructure": {"href": "/mdr/adam/adamig-1-0/datastructures/BDS", "title": "Basic Data Structure", "type": "Data Structure"}, "parentProduct": {"href": "/mdr/adam/adamig-1-0", "title": "Analysis Data Model Implementation Guide Version 1.0", "type": "Implementation Guide"}, "parentVariableSet": {"href": "/mdr/adam/adamig-1-0/datastructures/BDS/varsets/TimingVariables", "title": "Timing Variables", "type": "Variable Set"}, "self": {"href": "/mdr/adam/adamig-1-0/datastructures/BDS/variables/ADTM", "title": "Analysis Date/Time", "type": "Analysis Variable"}}, "core": "Perm", "description": "The date/time associated with AVAL and/or AVALC in numeric format.", "label": "Analysis Date/Time", "name": "ADTM", "ordinal": "15", "simpleDatatype": "Num"}, {"_links": {"parentDatastructure": {"href": "/mdr/adam/adamig-1-0/datastructures/BDS", "title": "Basic Data Structure", "type": "Data Structure"}, "parentProduct": {"href": "/mdr/adam/adamig-1-0", "title": "Analysis Data Model Implementation Guide Version 1.0", "type": "Implementation Guide"}, "parentVariableSet": {"href": "/mdr/adam/adamig-1-0/datastructures/BDS/varsets/TimingVariables", "title": "Timing Variables", "type": "Variable Set"}, "self": {"href": "/mdr/adam/adamig-1-0/datastructures/BDS/variables/ADY", "title": "Analysis Relative Day", "type": "Analysis Variable"}}, "core": "Perm", "description": "The relative day of AVAL and/or AVALC. The number of days from a reference date (not necessarily DM.RFSTDTC) to ADT. The reference date should be indicated in the variable-level metadata for ADY and the reference date should be included as a variable in the given analysis dataset or alternatively in ADSL.", "label": "Analysis Relative Day", "name": "ADY", "ordinal": "16", "simpleDatatype": "Num"}, {"_links": {"codelist": [{"href": "/mdr/root/ct/adamct/codelists/C81223", "title": "Version-agnostic anchor resource for codelist C81223", "type": "Root Value Domain"}], "parentDatastructure": {"href": "/mdr/adam/adamig-1-0/datastructures/BDS", "title": "Basic Data Structure", "type": "Data Structure"}, "parentProduct": {"href": "/mdr/adam/adamig-1-0", "title": "Analysis Data Model Implementation Guide Version 1.0", "type": "Implementation Guide"}, "parentVariableSet": {"href": "/mdr/adam/adamig-1-0/datastructures/BDS/varsets/TimingVariables", "title": "Timing Variables", "type": "Variable Set"}, "self": {"href": "/mdr/adam/adamig-1-0/datastructures/BDS/variables/ADTF", "title": "Analysis Date Imputation Flag", "type": "Analysis Variable"}}, "codelistSubmissionValues": ["DATEFL"], "core": "Cond", "description": "The level of imputation of ADT based on the source SDTM DTC variable. See General Timing Variable Convention #6.", "label": "Analysis Date Imputation Flag", "name": "ADTF", "ordinal": "17", "simpleDatatype": "Char"}, {"_links": {"codelist": [{"href": "/mdr/root/ct/adamct/codelists/C81226", "title": "Version-agnostic anchor resource for codelist C81226", "type": "Root Value Domain"}], "parentDatastructure": {"href": "/mdr/adam/adamig-1-0/datastructures/BDS", "title": "Basic Data Structure", "type": "Data Structure"}, "parentProduct": {"href": "/mdr/adam/adamig-1-0", "title": "Analysis Data Model Implementation Guide Version 1.0", "type": "Implementation Guide"}, "parentVariableSet": {"href": "/mdr/adam/adamig-1-0/datastructures/BDS/varsets/TimingVariables", "title": "Timing Variables", "type": "Variable Set"}, "self": {"href": "/mdr/adam/adamig-1-0/datastructures/BDS/variables/ATMF", "title": "Analysis Time Imputation Flag", "type": "Analysis Variable"}}, "codelistSubmissionValues": ["TIMEFL"], "core": "Cond", "description": "The level of imputation of ATM based on the source SDTM DTC variable. See General Timing Variable Convention #7.", "label": "Analysis Time Imputation Flag", "name": "ATMF", "ordinal": "18", "simpleDatatype": "Char"}, {"_links": {"parentDatastructure": {"href": "/mdr/adam/adamig-1-0/datastructures/BDS", "title": "Basic Data Structure", "type": "Data Structure"}, "parentProduct": {"href": "/mdr/adam/adamig-1-0", "title": "Analysis Data Model Implementation Guide Version 1.0", "type": "Implementation Guide"}, "parentVariableSet": {"href": "/mdr/adam/adamig-1-0/datastructures/BDS/varsets/TimingVariables", "title": "Timing Variables", "type": "Variable Set"}, "self": {"href": "/mdr/adam/adamig-1-0/datastructures/BDS/variables/ASTDT", "title": "Analysis Start Date", "type": "Analysis Variable"}}, "core": "Perm", "description": "The start date associated with AVAL and/or AVALC. ASTDT and AENDT may be useful for traceability when AVAL summarizes data collected over an interval of time, or when AVAL is a duration.", "label": "Analysis Start Date", "name": "ASTDT", "ordinal": "19", "simpleDatatype": "Num"}, {"_links": {"parentDatastructure": {"href": "/mdr/adam/adamig-1-0/datastructures/BDS", "title": "Basic Data Structure", "type": "Data Structure"}, "parentProduct": {"href": "/mdr/adam/adamig-1-0", "title": "Analysis Data Model Implementation Guide Version 1.0", "type": "Implementation Guide"}, "parentVariableSet": {"href": "/mdr/adam/adamig-1-0/datastructures/BDS/varsets/TimingVariables", "title": "Timing Variables", "type": "Variable Set"}, "self": {"href": "/mdr/adam/adamig-1-0/datastructures/BDS/variables/ASTTM", "title": "Analysis Start Time", "type": "Analysis Variable"}}, "core": "Perm", "description": "The start time associated with AVAL and/or AVALC. ASTTM and AENTM may be useful for traceability when AVAL summarizes data collected over an interval of time, or when AVAL is a duration.", "label": "Analysis Start Time", "name": "ASTTM", "ordinal": "20", "simpleDatatype": "Num"}, {"_links": {"parentDatastructure": {"href": "/mdr/adam/adamig-1-0/datastructures/BDS", "title": "Basic Data Structure", "type": "Data Structure"}, "parentProduct": {"href": "/mdr/adam/adamig-1-0", "title": "Analysis Data Model Implementation Guide Version 1.0", "type": "Implementation Guide"}, "parentVariableSet": {"href": "/mdr/adam/adamig-1-0/datastructures/BDS/varsets/TimingVariables", "title": "Timing Variables", "type": "Variable Set"}, "self": {"href": "/mdr/adam/adamig-1-0/datastructures/BDS/variables/ASTDTM", "title": "Analysis Start Date/Time", "type": "Analysis Variable"}}, "core": "Perm", "description": "The start datetime associated with AVAL and/or AVALC. ASTDTM and AENDTM may be useful for traceability when AVAL summarizes data collected over an interval of time, or when AVAL is a duration.", "label": "Analysis Start Date/Time", "name": "ASTDTM", "ordinal": "21", "simpleDatatype": "Num"}, {"_links": {"parentDatastructure": {"href": "/mdr/adam/adamig-1-0/datastructures/BDS", "title": "Basic Data Structure", "type": "Data Structure"}, "parentProduct": {"href": "/mdr/adam/adamig-1-0", "title": "Analysis Data Model Implementation Guide Version 1.0", "type": "Implementation Guide"}, "parentVariableSet": {"href": "/mdr/adam/adamig-1-0/datastructures/BDS/varsets/TimingVariables", "title": "Timing Variables", "type": "Variable Set"}, "self": {"href": "/mdr/adam/adamig-1-0/datastructures/BDS/variables/ASTDY", "title": "Analysis Start Relative Day", "type": "Analysis Variable"}}, "core": "Perm", "description": "The number of days from a reference date (not necessarily DM.RFSTDTC) to ASTDT. The reference date variable should be indicated in the variable-level metadata for ASTDY and the reference date variable should be included as a variable in an analysis dataset (typically, but not necessarily, ADSL).", "label": "Analysis Start Relative Day", "name": "ASTDY", "ordinal": "22", "simpleDatatype": "Num"}, {"_links": {"codelist": [{"href": "/mdr/root/ct/adamct/codelists/C81223", "title": "Version-agnostic anchor resource for codelist C81223", "type": "Root Value Domain"}], "parentDatastructure": {"href": "/mdr/adam/adamig-1-0/datastructures/BDS", "title": "Basic Data Structure", "type": "Data Structure"}, "parentProduct": {"href": "/mdr/adam/adamig-1-0", "title": "Analysis Data Model Implementation Guide Version 1.0", "type": "Implementation Guide"}, "parentVariableSet": {"href": "/mdr/adam/adamig-1-0/datastructures/BDS/varsets/TimingVariables", "title": "Timing Variables", "type": "Variable Set"}, "self": {"href": "/mdr/adam/adamig-1-0/datastructures/BDS/variables/ASTDTF", "title": "Analysis Start Date Imputation Flag", "type": "Analysis Variable"}}, "codelistSubmissionValues": ["DATEFL"], "core": "Cond", "description": "The level of imputation of ASTDT based on the source SDTM DTC variable. See General Timing Variable Convention #6.", "label": "Analysis Start Date Imputation Flag", "name": "ASTDTF", "ordinal": "23", "simpleDatatype": "Char"}, {"_links": {"codelist": [{"href": "/mdr/root/ct/adamct/codelists/C81226", "title": "Version-agnostic anchor resource for codelist C81226", "type": "Root Value Domain"}], "parentDatastructure": {"href": "/mdr/adam/adamig-1-0/datastructures/BDS", "title": "Basic Data Structure", "type": "Data Structure"}, "parentProduct": {"href": "/mdr/adam/adamig-1-0", "title": "Analysis Data Model Implementation Guide Version 1.0", "type": "Implementation Guide"}, "parentVariableSet": {"href": "/mdr/adam/adamig-1-0/datastructures/BDS/varsets/TimingVariables", "title": "Timing Variables", "type": "Variable Set"}, "self": {"href": "/mdr/adam/adamig-1-0/datastructures/BDS/variables/ASTTMF", "title": "Analysis Start Time Imputation Flag", "type": "Analysis Variable"}}, "codelistSubmissionValues": ["TIMEFL"], "core": "Cond", "description": "The level of imputation of ASTTM based on the source SDTM DTC variable. See General Timing Variable Convention #7.", "label": "Analysis Start Time Imputation Flag", "name": "ASTTMF", "ordinal": "24", "simpleDatatype": "Char"}, {"_links": {"parentDatastructure": {"href": "/mdr/adam/adamig-1-0/datastructures/BDS", "title": "Basic Data Structure", "type": "Data Structure"}, "parentProduct": {"href": "/mdr/adam/adamig-1-0", "title": "Analysis Data Model Implementation Guide Version 1.0", "type": "Implementation Guide"}, "parentVariableSet": {"href": "/mdr/adam/adamig-1-0/datastructures/BDS/varsets/TimingVariables", "title": "Timing Variables", "type": "Variable Set"}, "self": {"href": "/mdr/adam/adamig-1-0/datastructures/BDS/variables/AENDT", "title": "Analysis End Date", "type": "Analysis Variable"}}, "core": "Perm", "description": "The end date associated with AVAL and/or AVALC. See also ASTDT.", "label": "Analysis End Date", "name": "AENDT", "ordinal": "25", "simpleDatatype": "Num"}, {"_links": {"parentDatastructure": {"href": "/mdr/adam/adamig-1-0/datastructures/BDS", "title": "Basic Data Structure", "type": "Data Structure"}, "parentProduct": {"href": "/mdr/adam/adamig-1-0", "title": "Analysis Data Model Implementation Guide Version 1.0", "type": "Implementation Guide"}, "parentVariableSet": {"href": "/mdr/adam/adamig-1-0/datastructures/BDS/varsets/TimingVariables", "title": "Timing Variables", "type": "Variable Set"}, "self": {"href": "/mdr/adam/adamig-1-0/datastructures/BDS/variables/AENTM", "title": "Analysis End Time", "type": "Analysis Variable"}}, "core": "Perm", "description": "The end time associated with AVAL and/or AVALC. See also ASTTM.", "label": "Analysis End Time", "name": "AENTM", "ordinal": "26", "simpleDatatype": "Num"}, {"_links": {"parentDatastructure": {"href": "/mdr/adam/adamig-1-0/datastructures/BDS", "title": "Basic Data Structure", "type": "Data Structure"}, "parentProduct": {"href": "/mdr/adam/adamig-1-0", "title": "Analysis Data Model Implementation Guide Version 1.0", "type": "Implementation Guide"}, "parentVariableSet": {"href": "/mdr/adam/adamig-1-0/datastructures/BDS/varsets/TimingVariables", "title": "Timing Variables", "type": "Variable Set"}, "self": {"href": "/mdr/adam/adamig-1-0/datastructures/BDS/variables/AENDTM", "title": "Analysis End Date/Time", "type": "Analysis Variable"}}, "core": "Perm", "description": "The end datetime associated with AVAL and/or AVALC. See also ASTDTM.", "label": "Analysis End Date/Time", "name": "AENDTM", "ordinal": "27", "simpleDatatype": "Num"}, {"_links": {"parentDatastructure": {"href": "/mdr/adam/adamig-1-0/datastructures/BDS", "title": "Basic Data Structure", "type": "Data Structure"}, "parentProduct": {"href": "/mdr/adam/adamig-1-0", "title": "Analysis Data Model Implementation Guide Version 1.0", "type": "Implementation Guide"}, "parentVariableSet": {"href": "/mdr/adam/adamig-1-0/datastructures/BDS/varsets/TimingVariables", "title": "Timing Variables", "type": "Variable Set"}, "self": {"href": "/mdr/adam/adamig-1-0/datastructures/BDS/variables/AENDY", "title": "Analysis End Relative Day", "type": "Analysis Variable"}}, "core": "Perm", "description": "The number of days from a reference date (not necessarily DM.RFSTDTC) to AENDT. See also ASTDY.", "label": "Analysis End Relative Day", "name": "AENDY", "ordinal": "28", "simpleDatatype": "Num"}, {"_links": {"codelist": [{"href": "/mdr/root/ct/adamct/codelists/C81223", "title": "Version-agnostic anchor resource for codelist C81223", "type": "Root Value Domain"}], "parentDatastructure": {"href": "/mdr/adam/adamig-1-0/datastructures/BDS", "title": "Basic Data Structure", "type": "Data Structure"}, "parentProduct": {"href": "/mdr/adam/adamig-1-0", "title": "Analysis Data Model Implementation Guide Version 1.0", "type": "Implementation Guide"}, "parentVariableSet": {"href": "/mdr/adam/adamig-1-0/datastructures/BDS/varsets/TimingVariables", "title": "Timing Variables", "type": "Variable Set"}, "self": {"href": "/mdr/adam/adamig-1-0/datastructures/BDS/variables/AENDTF", "title": "Analysis End Date Imputation Flag", "type": "Analysis Variable"}}, "codelistSubmissionValues": ["DATEFL"], "core": "Cond", "description": "The level of imputation of AENDT based on the source SDTM DTC variable. See General Timing Variable Convention #6.", "label": "Analysis End Date Imputation Flag", "name": "AENDTF", "ordinal": "29", "simpleDatatype": "Char"}, {"_links": {"codelist": [{"href": "/mdr/root/ct/adamct/codelists/C81226", "title": "Version-agnostic anchor resource for codelist C81226", "type": "Root Value Domain"}], "parentDatastructure": {"href": "/mdr/adam/adamig-1-0/datastructures/BDS", "title": "Basic Data Structure", "type": "Data Structure"}, "parentProduct": {"href": "/mdr/adam/adamig-1-0", "title": "Analysis Data Model Implementation Guide Version 1.0", "type": "Implementation Guide"}, "parentVariableSet": {"href": "/mdr/adam/adamig-1-0/datastructures/BDS/varsets/TimingVariables", "title": "Timing Variables", "type": "Variable Set"}, "self": {"href": "/mdr/adam/adamig-1-0/datastructures/BDS/variables/AENTMF", "title": "Analysis End Time Imputation Flag", "type": "Analysis Variable"}}, "codelistSubmissionValues": ["TIMEFL"], "core": "Cond", "description": "The level of imputation of AENTM based on the source SDTM DTC variable. See General Timing Variable Convention #7.", "label": "Analysis End Time Imputation Flag", "name": "AENTMF", "ordinal": "30", "simpleDatatype": "Char"}, {"_links": {"parentDatastructure": {"href": "/mdr/adam/adamig-1-0/datastructures/BDS", "title": "Basic Data Structure", "type": "Data Structure"}, "parentProduct": {"href": "/mdr/adam/adamig-1-0", "title": "Analysis Data Model Implementation Guide Version 1.0", "type": "Implementation Guide"}, "parentVariableSet": {"href": "/mdr/adam/adamig-1-0/datastructures/BDS/varsets/TimingVariables", "title": "Timing Variables", "type": "Variable Set"}, "self": {"href": "/mdr/adam/adamig-1-0/datastructures/BDS/variables/AVISIT", "title": "Analysis Visit", "type": "Analysis Variable"}}, "core": "Cond", "description": "AVISIT may contain the visit names as observe d (i.e., from SDTM VISIT), derived visit names, time window names, conceptual descriptions (such as Average, Endpoint, etc.), or a combination of any of these. AVISIT is a derived field and does not have to map to VISIT from the SDTM. AVISIT represents the analysis visit of the record, but it does not mean that the record was analyzed. There are often multiple records for the same subject and parameter that have the same value of AVISIT. ANLzzFL and other variables may be needed to identify the records selected for any given analysis. See Section 3.2.6 for metadata about flag variables. AVISIT should be unique for a given analysis visit window. In the event that a record does not fall within any predefined analysis timepoint window, AVISIT can be populated in any way that the sponsor chooses to indicate this fact (i.e., blank or \"Not Windowed\"). The way that AVISIT is calculated, including the variables used in its derivation, should be indicated in the variable metadata for AVISIT. The values and the rules for deriving AVISIT may be different for different parameters within the same dataset. Values of AVISIT are sponsor-defined, and are often directly usable in Clinical Study Report displays.", "label": "Analysis Visit", "name": "AVISIT", "ordinal": "31", "simpleDatatype": "Char"}, {"_links": {"parentDatastructure": {"href": "/mdr/adam/adamig-1-0/datastructures/BDS", "title": "Basic Data Structure", "type": "Data Structure"}, "parentProduct": {"href": "/mdr/adam/adamig-1-0", "title": "Analysis Data Model Implementation Guide Version 1.0", "type": "Implementation Guide"}, "parentVariableSet": {"href": "/mdr/adam/adamig-1-0/datastructures/BDS/varsets/TimingVariables", "title": "Timing Variables", "type": "Variable Set"}, "self": {"href": "/mdr/adam/adamig-1-0/datastructures/BDS/variables/AVISITN", "title": "Analysis Visit (N)", "type": "Analysis Variable"}}, "core": "Perm", "description": "A numeric representation of AVISIT. This may be a protocol visit number, a week or cycle number, an analysis visit number, or any other number logically related to AVISIT or useful for sorting that is needed for analysis. Within a parameter, there is a one-to-one mapping between AVISITN and AVISIT so that AVISITN has the same value for each distinct AVISIT. In the event that a record does not fall within any predefined analysis timepoint window, AVISITN can be populated in any way that the sponsor chooses to indicate this fact (e.g., may be null). Values of AVISITN are sponsor-defined.", "label": "Analysis Visit (N)", "name": "AVISITN", "ordinal": "32", "simpleDatatype": "Num"}, {"_links": {"parentDatastructure": {"href": "/mdr/adam/adamig-1-0/datastructures/BDS", "title": "Basic Data Structure", "type": "Data Structure"}, "parentProduct": {"href": "/mdr/adam/adamig-1-0", "title": "Analysis Data Model Implementation Guide Version 1.0", "type": "Implementation Guide"}, "parentVariableSet": {"href": "/mdr/adam/adamig-1-0/datastructures/BDS/varsets/TimingVariables", "title": "Timing Variables", "type": "Variable Set"}, "self": {"href": "/mdr/adam/adamig-1-0/datastructures/BDS/variables/ATPT", "title": "Analysis Timepoint", "type": "Analysis Variable"}}, "core": "Perm", "description": "The analysis time point description which is required if analysis times are derived. Timepoints are relative to ATPTREF. ATPT can be within an analysis visit (e.g., blood pressure assessments at 10 min, 20 min, and 30 min post-dose at AVISIT=Week 1) or can be unrelated to AVISIT (e.g., migraine symptoms 30 min, 60 min, and 120 min post-dose for attack 1).", "label": "Analysis Timepoint", "name": "ATPT", "ordinal": "33", "simpleDatatype": "Char"}, {"_links": {"parentDatastructure": {"href": "/mdr/adam/adamig-1-0/datastructures/BDS", "title": "Basic Data Structure", "type": "Data Structure"}, "parentProduct": {"href": "/mdr/adam/adamig-1-0", "title": "Analysis Data Model Implementation Guide Version 1.0", "type": "Implementation Guide"}, "parentVariableSet": {"href": "/mdr/adam/adamig-1-0/datastructures/BDS/varsets/TimingVariables", "title": "Timing Variables", "type": "Variable Set"}, "self": {"href": "/mdr/adam/adamig-1-0/datastructures/BDS/variables/ATPTN", "title": "Analysis Timepoint (N)", "type": "Analysis Variable"}}, "core": "Perm", "description": "ATPTN provides a numeric representation of ATPT. Within the same parameter, there is a one-to-one mapping between ATPT and ATPTN.", "label": "Analysis Timepoint (N)", "name": "ATPTN", "ordinal": "34", "simpleDatatype": "Num"}, {"_links": {"parentDatastructure": {"href": "/mdr/adam/adamig-1-0/datastructures/BDS", "title": "Basic Data Structure", "type": "Data Structure"}, "parentProduct": {"href": "/mdr/adam/adamig-1-0", "title": "Analysis Data Model Implementation Guide Version 1.0", "type": "Implementation Guide"}, "parentVariableSet": {"href": "/mdr/adam/adamig-1-0/datastructures/BDS/varsets/TimingVariables", "title": "Timing Variables", "type": "Variable Set"}, "self": {"href": "/mdr/adam/adamig-1-0/datastructures/BDS/variables/ATPTREF", "title": "Analysis Timepoint Reference", "type": "Analysis Variable"}}, "core": "Perm", "description": "Description of the fixed reference point referred to by ATPT/ATPTN.", "label": "Analysis Timepoint Reference", "name": "ATPTREF", "ordinal": "35", "simpleDatatype": "Char"}, {"_links": {"parentDatastructure": {"href": "/mdr/adam/adamig-1-0/datastructures/BDS", "title": "Basic Data Structure", "type": "Data Structure"}, "parentProduct": {"href": "/mdr/adam/adamig-1-0", "title": "Analysis Data Model Implementation Guide Version 1.0", "type": "Implementation Guide"}, "parentVariableSet": {"href": "/mdr/adam/adamig-1-0/datastructures/BDS/varsets/TimingVariables", "title": "Timing Variables", "type": "Variable Set"}, "self": {"href": "/mdr/adam/adamig-1-0/datastructures/BDS/variables/APERIOD", "title": "Period", "type": "Analysis Variable"}}, "core": "Perm", "description": "The numeric value characterizing the period to which the record belongs. The value of APERIOD must be consistent with the xx value in TRTxxP, TRTxxA, and all variables whose names begin with TRxx and APxx.", "label": "Period", "name": "APERIOD", "ordinal": "36", "simpleDatatype": "Num"}, {"_links": {"parentDatastructure": {"href": "/mdr/adam/adamig-1-0/datastructures/BDS", "title": "Basic Data Structure", "type": "Data Structure"}, "parentProduct": {"href": "/mdr/adam/adamig-1-0", "title": "Analysis Data Model Implementation Guide Version 1.0", "type": "Implementation Guide"}, "parentVariableSet": {"href": "/mdr/adam/adamig-1-0/datastructures/BDS/varsets/TimingVariables", "title": "Timing Variables", "type": "Variable Set"}, "self": {"href": "/mdr/adam/adamig-1-0/datastructures/BDS/variables/APERIODC", "title": "Period (C)", "type": "Analysis Variable"}}, "core": "Perm", "description": "Text characterizing to which period the record belongs. One-to-one map to APERIOD.", "label": "Period (C)", "name": "APERIODC", "ordinal": "37", "simpleDatatype": "Char"}, {"_links": {"parentDatastructure": {"href": "/mdr/adam/adamig-1-0/datastructures/BDS", "title": "Basic Data Structure", "type": "Data Structure"}, "parentProduct": {"href": "/mdr/adam/adamig-1-0", "title": "Analysis Data Model Implementation Guide Version 1.0", "type": "Implementation Guide"}, "parentVariableSet": {"href": "/mdr/adam/adamig-1-0/datastructures/BDS/varsets/TimingVariables", "title": "Timing Variables", "type": "Variable Set"}, "self": {"href": "/mdr/adam/adamig-1-0/datastructures/BDS/variables/APHASE", "title": "Phase", "type": "Analysis Variable"}}, "core": "Perm", "description": "Generally, a higher-level categorization of APERIOD. Does not replace APERIOD, because APERIOD provides the indexing for the TRxx and APxx variables.", "label": "Phase", "name": "APHASE", "ordinal": "38", "simpleDatatype": "Char"}, {"_links": {"parentDatastructure": {"href": "/mdr/adam/adamig-1-0/datastructures/BDS", "title": "Basic Data Structure", "type": "Data Structure"}, "parentProduct": {"href": "/mdr/adam/adamig-1-0", "title": "Analysis Data Model Implementation Guide Version 1.0", "type": "Implementation Guide"}, "parentVariableSet": {"href": "/mdr/adam/adamig-1-0/datastructures/BDS/varsets/TimingVariables", "title": "Timing Variables", "type": "Variable Set"}, "self": {"href": "/mdr/adam/adamig-1-0/datastructures/BDS/variables/ARELTM", "title": "Analysis Relative Time", "type": "Analysis Variable"}}, "core": "Perm", "description": "The time relative to an anchor time. When ARELTM is present, the anchor time variable and ARELTMU must also be included in the dataset, and the anchor time variable must be identified in the metadata for ARELTM.", "label": "Analysis Relative Time", "name": "ARELTM", "ordinal": "39", "simpleDatatype": "Num"}, {"_links": {"parentDatastructure": {"href": "/mdr/adam/adamig-1-0/datastructures/BDS", "title": "Basic Data Structure", "type": "Data Structure"}, "parentProduct": {"href": "/mdr/adam/adamig-1-0", "title": "Analysis Data Model Implementation Guide Version 1.0", "type": "Implementation Guide"}, "parentVariableSet": {"href": "/mdr/adam/adamig-1-0/datastructures/BDS/varsets/TimingVariables", "title": "Timing Variables", "type": "Variable Set"}, "self": {"href": "/mdr/adam/adamig-1-0/datastructures/BDS/variables/ARELTMU", "title": "Analysis Relative Time Unit", "type": "Analysis Variable"}}, "core": "Cond", "description": "The units of ARELTM. For example, \"HOURS\" or \"MINUTES.\" ARELTMU is required if ARELTM is present.", "label": "Analysis Relative Time Unit", "name": "ARELTMU", "ordinal": "40", "simpleDatatype": "Char"}, {"_links": {"parentDatastructure": {"href": "/mdr/adam/adamig-1-0/datastructures/BDS", "title": "Basic Data Structure", "type": "Data Structure"}, "parentProduct": {"href": "/mdr/adam/adamig-1-0", "title": "Analysis Data Model Implementation Guide Version 1.0", "type": "Implementation Guide"}, "parentVariableSet": {"href": "/mdr/adam/adamig-1-0/datastructures/BDS/varsets/TimingVariables", "title": "Timing Variables", "type": "Variable Set"}, "self": {"href": "/mdr/adam/adamig-1-0/datastructures/BDS/variables/APERSDT", "title": "Period Start Date", "type": "Analysis Variable"}}, "core": "Perm", "description": "The starting date for the period defined by APERIOD.", "label": "Period Start Date", "name": "APERSDT", "ordinal": "41", "simpleDatatype": "Num"}, {"_links": {"parentDatastructure": {"href": "/mdr/adam/adamig-1-0/datastructures/BDS", "title": "Basic Data Structure", "type": "Data Structure"}, "parentProduct": {"href": "/mdr/adam/adamig-1-0", "title": "Analysis Data Model Implementation Guide Version 1.0", "type": "Implementation Guide"}, "parentVariableSet": {"href": "/mdr/adam/adamig-1-0/datastructures/BDS/varsets/TimingVariables", "title": "Timing Variables", "type": "Variable Set"}, "self": {"href": "/mdr/adam/adamig-1-0/datastructures/BDS/variables/APERSTM", "title": "Period Start Time", "type": "Analysis Variable"}}, "core": "Perm", "description": "The starting time for the period defined by APERIOD.", "label": "Period Start Time", "name": "APERSTM", "ordinal": "42", "simpleDatatype": "Num"}, {"_links": {"parentDatastructure": {"href": "/mdr/adam/adamig-1-0/datastructures/BDS", "title": "Basic Data Structure", "type": "Data Structure"}, "parentProduct": {"href": "/mdr/adam/adamig-1-0", "title": "Analysis Data Model Implementation Guide Version 1.0", "type": "Implementation Guide"}, "parentVariableSet": {"href": "/mdr/adam/adamig-1-0/datastructures/BDS/varsets/TimingVariables", "title": "Timing Variables", "type": "Variable Set"}, "self": {"href": "/mdr/adam/adamig-1-0/datastructures/BDS/variables/APERSDTM", "title": "Period Start Date/Time", "type": "Analysis Variable"}}, "core": "Perm", "description": "The starting datetime for the period defined by APERIOD.", "label": "Period Start Date/Time", "name": "APERSDTM", "ordinal": "43", "simpleDatatype": "Num"}, {"_links": {"codelist": [{"href": "/mdr/root/ct/adamct/codelists/C81223", "title": "Version-agnostic anchor resource for codelist C81223", "type": "Root Value Domain"}], "parentDatastructure": {"href": "/mdr/adam/adamig-1-0/datastructures/BDS", "title": "Basic Data Structure", "type": "Data Structure"}, "parentProduct": {"href": "/mdr/adam/adamig-1-0", "title": "Analysis Data Model Implementation Guide Version 1.0", "type": "Implementation Guide"}, "parentVariableSet": {"href": "/mdr/adam/adamig-1-0/datastructures/BDS/varsets/TimingVariables", "title": "Timing Variables", "type": "Variable Set"}, "self": {"href": "/mdr/adam/adamig-1-0/datastructures/BDS/variables/APERSDTF", "title": "Period Start Date Imput. Flag", "type": "Analysis Variable"}}, "codelistSubmissionValues": ["DATEFL"], "core": "Cond", "description": "The level of imputation of APERSDT based on the source SDTM DTC variable. See General Timing Variable Convention #6.", "label": "Period Start Date Imput. Flag", "name": "APERSDTF", "ordinal": "44", "simpleDatatype": "Char"}, {"_links": {"codelist": [{"href": "/mdr/root/ct/adamct/codelists/C81226", "title": "Version-agnostic anchor resource for codelist C81226", "type": "Root Value Domain"}], "parentDatastructure": {"href": "/mdr/adam/adamig-1-0/datastructures/BDS", "title": "Basic Data Structure", "type": "Data Structure"}, "parentProduct": {"href": "/mdr/adam/adamig-1-0", "title": "Analysis Data Model Implementation Guide Version 1.0", "type": "Implementation Guide"}, "parentVariableSet": {"href": "/mdr/adam/adamig-1-0/datastructures/BDS/varsets/TimingVariables", "title": "Timing Variables", "type": "Variable Set"}, "self": {"href": "/mdr/adam/adamig-1-0/datastructures/BDS/variables/APERSTMF", "title": "Period Start Time Imput. Flag", "type": "Analysis Variable"}}, "codelistSubmissionValues": ["TIMEFL"], "core": "Cond", "description": "The level of imputation of APERSTM based on the source SDTM DTC variable. See General Timing Variable Convention #7.", "label": "Period Start Time Imput. Flag", "name": "APERSTMF", "ordinal": "45", "simpleDatatype": "Char"}, {"_links": {"parentDatastructure": {"href": "/mdr/adam/adamig-1-0/datastructures/BDS", "title": "Basic Data Structure", "type": "Data Structure"}, "parentProduct": {"href": "/mdr/adam/adamig-1-0", "title": "Analysis Data Model Implementation Guide Version 1.0", "type": "Implementation Guide"}, "parentVariableSet": {"href": "/mdr/adam/adamig-1-0/datastructures/BDS/varsets/TimingVariables", "title": "Timing Variables", "type": "Variable Set"}, "self": {"href": "/mdr/adam/adamig-1-0/datastructures/BDS/variables/APEREDT", "title": "Period End Date", "type": "Analysis Variable"}}, "core": "Perm", "description": "The ending date for the period defined by APERIOD.", "label": "Period End Date", "name": "APEREDT", "ordinal": "46", "simpleDatatype": "Num"}, {"_links": {"parentDatastructure": {"href": "/mdr/adam/adamig-1-0/datastructures/BDS", "title": "Basic Data Structure", "type": "Data Structure"}, "parentProduct": {"href": "/mdr/adam/adamig-1-0", "title": "Analysis Data Model Implementation Guide Version 1.0", "type": "Implementation Guide"}, "parentVariableSet": {"href": "/mdr/adam/adamig-1-0/datastructures/BDS/varsets/TimingVariables", "title": "Timing Variables", "type": "Variable Set"}, "self": {"href": "/mdr/adam/adamig-1-0/datastructures/BDS/variables/APERETM", "title": "Period End Time", "type": "Analysis Variable"}}, "core": "Perm", "description": "The ending time for the period defined by APERIOD.", "label": "Period End Time", "name": "APERETM", "ordinal": "47", "simpleDatatype": "Num"}, {"_links": {"parentDatastructure": {"href": "/mdr/adam/adamig-1-0/datastructures/BDS", "title": "Basic Data Structure", "type": "Data Structure"}, "parentProduct": {"href": "/mdr/adam/adamig-1-0", "title": "Analysis Data Model Implementation Guide Version 1.0", "type": "Implementation Guide"}, "parentVariableSet": {"href": "/mdr/adam/adamig-1-0/datastructures/BDS/varsets/TimingVariables", "title": "Timing Variables", "type": "Variable Set"}, "self": {"href": "/mdr/adam/adamig-1-0/datastructures/BDS/variables/APEREDTM", "title": "Period End Date/Time", "type": "Analysis Variable"}}, "core": "Perm", "description": "The ending datetime for the period defined by APERIOD.", "label": "Period End Date/Time", "name": "APEREDTM", "ordinal": "48", "simpleDatatype": "Num"}, {"_links": {"codelist": [{"href": "/mdr/root/ct/adamct/codelists/C81223", "title": "Version-agnostic anchor resource for codelist C81223", "type": "Root Value Domain"}], "parentDatastructure": {"href": "/mdr/adam/adamig-1-0/datastructures/BDS", "title": "Basic Data Structure", "type": "Data Structure"}, "parentProduct": {"href": "/mdr/adam/adamig-1-0", "title": "Analysis Data Model Implementation Guide Version 1.0", "type": "Implementation Guide"}, "parentVariableSet": {"href": "/mdr/adam/adamig-1-0/datastructures/BDS/varsets/TimingVariables", "title": "Timing Variables", "type": "Variable Set"}, "self": {"href": "/mdr/adam/adamig-1-0/datastructures/BDS/variables/APEREDTF", "title": "Period End Date Imput. Flag", "type": "Analysis Variable"}}, "codelistSubmissionValues": ["DATEFL"], "core": "Cond", "description": "The level of imputation of APEREDT based on the source SDTM DTC variable. See General Timing Variable Convention #6.", "label": "Period End Date Imput. Flag", "name": "APEREDTF", "ordinal": "49", "simpleDatatype": "Char"}, {"_links": {"codelist": [{"href": "/mdr/root/ct/adamct/codelists/C81226", "title": "Version-agnostic anchor resource for codelist C81226", "type": "Root Value Domain"}], "parentDatastructure": {"href": "/mdr/adam/adamig-1-0/datastructures/BDS", "title": "Basic Data Structure", "type": "Data Structure"}, "parentProduct": {"href": "/mdr/adam/adamig-1-0", "title": "Analysis Data Model Implementation Guide Version 1.0", "type": "Implementation Guide"}, "parentVariableSet": {"href": "/mdr/adam/adamig-1-0/datastructures/BDS/varsets/TimingVariables", "title": "Timing Variables", "type": "Variable Set"}, "self": {"href": "/mdr/adam/adamig-1-0/datastructures/BDS/variables/APERETMF", "title": "Period End Time Imput. Flag", "type": "Analysis Variable"}}, "codelistSubmissionValues": ["TIMEFL"], "core": "Cond", "description": "The level of imputation of APERETM based on the source SDTM DTC variable. See General Timing Variable Convention #7.", "label": "Period End Time Imput. Flag", "name": "APERETMF", "ordinal": "50", "simpleDatatype": "Char"}, {"_links": {"parentDatastructure": {"href": "/mdr/adam/adamig-1-0/datastructures/BDS", "title": "Basic Data Structure", "type": "Data Structure"}, "parentProduct": {"href": "/mdr/adam/adamig-1-0", "title": "Analysis Data Model Implementation Guide Version 1.0", "type": "Implementation Guide"}, "parentVariableSet": {"href": "/mdr/adam/adamig-1-0/datastructures/BDS/varsets/TimingVariables", "title": "Timing Variables", "type": "Variable Set"}, "self": {"href": "/mdr/adam/adamig-1-0/datastructures/BDS/variables/sDT", "title": "Date of ...", "type": "Analysis Variable"}}, "core": "Perm", "description": "Analysis date not directly characterizing AVAL and/or AVALC in numeric format.", "label": "Date of ...", "name": "*DT", "ordinal": "51", "simpleDatatype": "Num"}, {"_links": {"parentDatastructure": {"href": "/mdr/adam/adamig-1-0/datastructures/BDS", "title": "Basic Data Structure", "type": "Data Structure"}, "parentProduct": {"href": "/mdr/adam/adamig-1-0", "title": "Analysis Data Model Implementation Guide Version 1.0", "type": "Implementation Guide"}, "parentVariableSet": {"href": "/mdr/adam/adamig-1-0/datastructures/BDS/varsets/TimingVariables", "title": "Timing Variables", "type": "Variable Set"}, "self": {"href": "/mdr/adam/adamig-1-0/datastructures/BDS/variables/sTM", "title": "Time of ...", "type": "Analysis Variable"}}, "core": "Perm", "description": "Analysis time not directly characterizing AVAL and/or AVALC in numeric format.", "label": "Time of ...", "name": "*TM", "ordinal": "52", "simpleDatatype": "Num"}, {"_links": {"parentDatastructure": {"href": "/mdr/adam/adamig-1-0/datastructures/BDS", "title": "Basic Data Structure", "type": "Data Structure"}, "parentProduct": {"href": "/mdr/adam/adamig-1-0", "title": "Analysis Data Model Implementation Guide Version 1.0", "type": "Implementation Guide"}, "parentVariableSet": {"href": "/mdr/adam/adamig-1-0/datastructures/BDS/varsets/TimingVariables", "title": "Timing Variables", "type": "Variable Set"}, "self": {"href": "/mdr/adam/adamig-1-0/datastructures/BDS/variables/sDTM", "title": "Date/Time of ...", "type": "Analysis Variable"}}, "core": "Perm", "description": "Analysis date/time not directly characterizing AVAL and/or AVALC in numeric format.", "label": "Date/Time of ...", "name": "*DTM", "ordinal": "53", "simpleDatatype": "Num"}, {"_links": {"parentDatastructure": {"href": "/mdr/adam/adamig-1-0/datastructures/BDS", "title": "Basic Data Structure", "type": "Data Structure"}, "parentProduct": {"href": "/mdr/adam/adamig-1-0", "title": "Analysis Data Model Implementation Guide Version 1.0", "type": "Implementation Guide"}, "parentVariableSet": {"href": "/mdr/adam/adamig-1-0/datastructures/BDS/varsets/TimingVariables", "title": "Timing Variables", "type": "Variable Set"}, "self": {"href": "/mdr/adam/adamig-1-0/datastructures/BDS/variables/sADY", "title": "Relative Day of ...", "type": "Analysis Variable"}}, "core": "Perm", "description": "Analysis relative day not directly characterizing AVAL and/or AVALC.", "label": "Relative Day of ...", "name": "*ADY", "ordinal": "54", "simpleDatatype": "Num"}, {"_links": {"codelist": [{"href": "/mdr/root/ct/adamct/codelists/C81223", "title": "Version-agnostic anchor resource for codelist C81223", "type": "Root Value Domain"}], "parentDatastructure": {"href": "/mdr/adam/adamig-1-0/datastructures/BDS", "title": "Basic Data Structure", "type": "Data Structure"}, "parentProduct": {"href": "/mdr/adam/adamig-1-0", "title": "Analysis Data Model Implementation Guide Version 1.0", "type": "Implementation Guide"}, "parentVariableSet": {"href": "/mdr/adam/adamig-1-0/datastructures/BDS/varsets/TimingVariables", "title": "Timing Variables", "type": "Variable Set"}, "self": {"href": "/mdr/adam/adamig-1-0/datastructures/BDS/variables/sDTF", "title": "Date Imputation Qual of ...", "type": "Analysis Variable"}}, "codelistSubmissionValues": ["DATEFL"], "core": "Cond", "description": "The level of imputation of *DT based on the source SDTM DTC variable. See General Timing Variable Convention #6.", "label": "Date Imputation Qual of ...", "name": "*DTF", "ordinal": "55", "simpleDatatype": "Char"}, {"_links": {"codelist": [{"href": "/mdr/root/ct/adamct/codelists/C81226", "title": "Version-agnostic anchor resource for codelist C81226", "type": "Root Value Domain"}], "parentDatastructure": {"href": "/mdr/adam/adamig-1-0/datastructures/BDS", "title": "Basic Data Structure", "type": "Data Structure"}, "parentProduct": {"href": "/mdr/adam/adamig-1-0", "title": "Analysis Data Model Implementation Guide Version 1.0", "type": "Implementation Guide"}, "parentVariableSet": {"href": "/mdr/adam/adamig-1-0/datastructures/BDS/varsets/TimingVariables", "title": "Timing Variables", "type": "Variable Set"}, "self": {"href": "/mdr/adam/adamig-1-0/datastructures/BDS/variables/sTMF", "title": "Time Imputation Flag of ...", "type": "Analysis Variable"}}, "codelistSubmissionValues": ["TIMEFL"], "core": "Cond", "description": "The level of imputation of *TM based on the source SDTM DTC variable. See General Timing Variable Convention #7.", "label": "Time Imputation Flag of ...", "name": "*TMF", "ordinal": "56", "simpleDatatype": "Char"}, {"_links": {"parentDatastructure": {"href": "/mdr/adam/adamig-1-0/datastructures/BDS", "title": "Basic Data Structure", "type": "Data Structure"}, "parentProduct": {"href": "/mdr/adam/adamig-1-0", "title": "Analysis Data Model Implementation Guide Version 1.0", "type": "Implementation Guide"}, "parentVariableSet": {"href": "/mdr/adam/adamig-1-0/datastructures/BDS/varsets/TimingVariables", "title": "Timing Variables", "type": "Variable Set"}, "self": {"href": "/mdr/adam/adamig-1-0/datastructures/BDS/variables/sSDT", "title": "Start Date of ...", "type": "Analysis Variable"}}, "core": "Perm", "description": "Starting analysis date not directly characterizing AVAL and/or AVALC in numeric format.", "label": "Start Date of ...", "name": "*SDT", "ordinal": "57", "simpleDatatype": "Num"}, {"_links": {"parentDatastructure": {"href": "/mdr/adam/adamig-1-0/datastructures/BDS", "title": "Basic Data Structure", "type": "Data Structure"}, "parentProduct": {"href": "/mdr/adam/adamig-1-0", "title": "Analysis Data Model Implementation Guide Version 1.0", "type": "Implementation Guide"}, "parentVariableSet": {"href": "/mdr/adam/adamig-1-0/datastructures/BDS/varsets/TimingVariables", "title": "Timing Variables", "type": "Variable Set"}, "self": {"href": "/mdr/adam/adamig-1-0/datastructures/BDS/variables/sSTM", "title": "Start Time of ...", "type": "Analysis Variable"}}, "core": "Perm", "description": "Starting analysis time not directly characterizing AVAL and/or AVALC in numeric format.", "label": "Start Time of ...", "name": "*STM", "ordinal": "58", "simpleDatatype": "Num"}, {"_links": {"parentDatastructure": {"href": "/mdr/adam/adamig-1-0/datastructures/BDS", "title": "Basic Data Structure", "type": "Data Structure"}, "parentProduct": {"href": "/mdr/adam/adamig-1-0", "title": "Analysis Data Model Implementation Guide Version 1.0", "type": "Implementation Guide"}, "parentVariableSet": {"href": "/mdr/adam/adamig-1-0/datastructures/BDS/varsets/TimingVariables", "title": "Timing Variables", "type": "Variable Set"}, "self": {"href": "/mdr/adam/adamig-1-0/datastructures/BDS/variables/sSDTM", "title": "Start Date/Time of ...", "type": "Analysis Variable"}}, "core": "Perm", "description": "Starting analysis date/time not directly characterizing AVAL and/or AVALC in numeric format.", "label": "Start Date/Time of ...", "name": "*SDTM", "ordinal": "59", "simpleDatatype": "Num"}, {"_links": {"parentDatastructure": {"href": "/mdr/adam/adamig-1-0/datastructures/BDS", "title": "Basic Data Structure", "type": "Data Structure"}, "parentProduct": {"href": "/mdr/adam/adamig-1-0", "title": "Analysis Data Model Implementation Guide Version 1.0", "type": "Implementation Guide"}, "parentVariableSet": {"href": "/mdr/adam/adamig-1-0/datastructures/BDS/varsets/TimingVariables", "title": "Timing Variables", "type": "Variable Set"}, "self": {"href": "/mdr/adam/adamig-1-0/datastructures/BDS/variables/sSDY", "title": "Relative Start Day of ...", "type": "Analysis Variable"}}, "core": "Perm", "description": "Starting analysis relative day not directly characterizing AVAL and/or AVALC.", "label": "Relative Start Day of ...", "name": "*SDY", "ordinal": "60", "simpleDatatype": "Num"}, {"_links": {"codelist": [{"href": "/mdr/root/ct/adamct/codelists/C81223", "title": "Version-agnostic anchor resource for codelist C81223", "type": "Root Value Domain"}], "parentDatastructure": {"href": "/mdr/adam/adamig-1-0/datastructures/BDS", "title": "Basic Data Structure", "type": "Data Structure"}, "parentProduct": {"href": "/mdr/adam/adamig-1-0", "title": "Analysis Data Model Implementation Guide Version 1.0", "type": "Implementation Guide"}, "parentVariableSet": {"href": "/mdr/adam/adamig-1-0/datastructures/BDS/varsets/TimingVariables", "title": "Timing Variables", "type": "Variable Set"}, "self": {"href": "/mdr/adam/adamig-1-0/datastructures/BDS/variables/sSDTF", "title": "Start Date Imputation Flag of ...", "type": "Analysis Variable"}}, "codelistSubmissionValues": ["DATEFL"], "core": "Cond", "description": "The level of imputation of *SDT based on the source SDTM DTC variable. See General Timing Variable Convention #6.", "label": "Start Date Imputation Flag of ...", "name": "*SDTF", "ordinal": "61", "simpleDatatype": "Char"}, {"_links": {"codelist": [{"href": "/mdr/root/ct/adamct/codelists/C81226", "title": "Version-agnostic anchor resource for codelist C81226", "type": "Root Value Domain"}], "parentDatastructure": {"href": "/mdr/adam/adamig-1-0/datastructures/BDS", "title": "Basic Data Structure", "type": "Data Structure"}, "parentProduct": {"href": "/mdr/adam/adamig-1-0", "title": "Analysis Data Model Implementation Guide Version 1.0", "type": "Implementation Guide"}, "parentVariableSet": {"href": "/mdr/adam/adamig-1-0/datastructures/BDS/varsets/TimingVariables", "title": "Timing Variables", "type": "Variable Set"}, "self": {"href": "/mdr/adam/adamig-1-0/datastructures/BDS/variables/sSTMF", "title": "Start Time Imputation Qual of ...", "type": "Analysis Variable"}}, "codelistSubmissionValues": ["TIMEFL"], "core": "Cond", "description": "The level of imputation of *STM based on the source SDTM DTC variable. See General Timing Variable Convention #7.", "label": "Start Time Imputation Qual of ...", "name": "*STMF", "ordinal": "62", "simpleDatatype": "Char"}, {"_links": {"parentDatastructure": {"href": "/mdr/adam/adamig-1-0/datastructures/BDS", "title": "Basic Data Structure", "type": "Data Structure"}, "parentProduct": {"href": "/mdr/adam/adamig-1-0", "title": "Analysis Data Model Implementation Guide Version 1.0", "type": "Implementation Guide"}, "parentVariableSet": {"href": "/mdr/adam/adamig-1-0/datastructures/BDS/varsets/TimingVariables", "title": "Timing Variables", "type": "Variable Set"}, "self": {"href": "/mdr/adam/adamig-1-0/datastructures/BDS/variables/sEDT", "title": "End Date of ...", "type": "Analysis Variable"}}, "core": "Perm", "description": "Ending analysis date not directly characterizing AVAL and/or AVALC in numeric format.", "label": "End Date of ...", "name": "*EDT", "ordinal": "63", "simpleDatatype": "Num"}, {"_links": {"parentDatastructure": {"href": "/mdr/adam/adamig-1-0/datastructures/BDS", "title": "Basic Data Structure", "type": "Data Structure"}, "parentProduct": {"href": "/mdr/adam/adamig-1-0", "title": "Analysis Data Model Implementation Guide Version 1.0", "type": "Implementation Guide"}, "parentVariableSet": {"href": "/mdr/adam/adamig-1-0/datastructures/BDS/varsets/TimingVariables", "title": "Timing Variables", "type": "Variable Set"}, "self": {"href": "/mdr/adam/adamig-1-0/datastructures/BDS/variables/sETM", "title": "End Time of ...", "type": "Analysis Variable"}}, "core": "Perm", "description": "Ending analysis time not directly characterizing AVAL and/or AVALC in numeric format.", "label": "End Time of ...", "name": "*ETM", "ordinal": "64", "simpleDatatype": "Num"}, {"_links": {"parentDatastructure": {"href": "/mdr/adam/adamig-1-0/datastructures/BDS", "title": "Basic Data Structure", "type": "Data Structure"}, "parentProduct": {"href": "/mdr/adam/adamig-1-0", "title": "Analysis Data Model Implementation Guide Version 1.0", "type": "Implementation Guide"}, "parentVariableSet": {"href": "/mdr/adam/adamig-1-0/datastructures/BDS/varsets/TimingVariables", "title": "Timing Variables", "type": "Variable Set"}, "self": {"href": "/mdr/adam/adamig-1-0/datastructures/BDS/variables/sEDTM", "title": "End Date/Time of ...", "type": "Analysis Variable"}}, "core": "Perm", "description": "Ending analysis date/time not directly characterizing AVAL and/or AVALC in numeric format.", "label": "End Date/Time of ...", "name": "*EDTM", "ordinal": "65", "simpleDatatype": "Num"}, {"_links": {"parentDatastructure": {"href": "/mdr/adam/adamig-1-0/datastructures/BDS", "title": "Basic Data Structure", "type": "Data Structure"}, "parentProduct": {"href": "/mdr/adam/adamig-1-0", "title": "Analysis Data Model Implementation Guide Version 1.0", "type": "Implementation Guide"}, "parentVariableSet": {"href": "/mdr/adam/adamig-1-0/datastructures/BDS/varsets/TimingVariables", "title": "Timing Variables", "type": "Variable Set"}, "self": {"href": "/mdr/adam/adamig-1-0/datastructures/BDS/variables/sEDY", "title": "Relative End Day of ...", "type": "Analysis Variable"}}, "core": "Perm", "description": "Ending analysis relative day not directly characterizing AVAL and/or AVALC.", "label": "Relative End Day of ...", "name": "*EDY", "ordinal": "66", "simpleDatatype": "Num"}, {"_links": {"codelist": [{"href": "/mdr/root/ct/adamct/codelists/C81223", "title": "Version-agnostic anchor resource for codelist C81223", "type": "Root Value Domain"}], "parentDatastructure": {"href": "/mdr/adam/adamig-1-0/datastructures/BDS", "title": "Basic Data Structure", "type": "Data Structure"}, "parentProduct": {"href": "/mdr/adam/adamig-1-0", "title": "Analysis Data Model Implementation Guide Version 1.0", "type": "Implementation Guide"}, "parentVariableSet": {"href": "/mdr/adam/adamig-1-0/datastructures/BDS/varsets/TimingVariables", "title": "Timing Variables", "type": "Variable Set"}, "self": {"href": "/mdr/adam/adamig-1-0/datastructures/BDS/variables/sEDTF", "title": "End Date Imputation Flag of ...", "type": "Analysis Variable"}}, "codelistSubmissionValues": ["DATEFL"], "core": "Cond", "description": "The level of imputation of *EDT based on the source SDTM DTC variable. See General Timing Variable Convention #6.", "label": "End Date Imputation Flag of ...", "name": "*EDTF", "ordinal": "67", "simpleDatatype": "Char"}, {"_links": {"codelist": [{"href": "/mdr/root/ct/adamct/codelists/C81226", "title": "Version-agnostic anchor resource for codelist C81226", "type": "Root Value Domain"}], "parentDatastructure": {"href": "/mdr/adam/adamig-1-0/datastructures/BDS", "title": "Basic Data Structure", "type": "Data Structure"}, "parentProduct": {"href": "/mdr/adam/adamig-1-0", "title": "Analysis Data Model Implementation Guide Version 1.0", "type": "Implementation Guide"}, "parentVariableSet": {"href": "/mdr/adam/adamig-1-0/datastructures/BDS/varsets/TimingVariables", "title": "Timing Variables", "type": "Variable Set"}, "self": {"href": "/mdr/adam/adamig-1-0/datastructures/BDS/variables/sETMF", "title": "End Time Imputation Flag of ...", "type": "Analysis Variable"}}, "codelistSubmissionValues": ["TIMEFL"], "core": "Cond", "description": "The level of imputation of *ETM based on the source SDTM DTC variable. See General Timing Variable Convention #7.", "label": "End Time Imputation Flag of ...", "name": "*ETMF", "ordinal": "68", "simpleDatatype": "Char"}], "description": "The timing variables whose names start with the letter \"A\" are the timing variables directly associated with the AVAL and AVALC variables in the analysis dataset.\n\nTiming variables (e.g., *DT) not directly characterizing AVAL should be prefixed by a character string instead of the placeholder asterisk shown in Table 3.2.3.1, so that their actual names comply with the variable naming conventions described at the beginning of Section 3. In many cases, the prefix for these date and time variables would match that of an SDTM --DTC, --STDTC or --ENDTC variable name. For example, if a numeric date variable were created from --STDTC, then it would be named --SDT. However, if --DTC or --STDTC is the date that is associated with AVAL and AVALC, its numeric equivalent should be named ADT. The General Timing Variable Conventions documented at the beginning of Section 3 apply here as well.", "label": "Timing Variables", "name": "Timing Variables", "ordinal": "3"}, {"_links": {"parentDatastructure": {"href": "/mdr/adam/adamig-1-0/datastructures/BDS", "title": "Basic Data Structure", "type": "Data Structure"}, "parentProduct": {"href": "/mdr/adam/adamig-1-0", "title": "Analysis Data Model Implementation Guide Version 1.0", "type": "Implementation Guide"}, "self": {"href": "/mdr/adam/adamig-1-0/datastructures/BDS/varsets/AnalysisParameterVariables", "title": "Analysis Parameter Variables", "type": "Variable Set"}}, "analysisVariables": [{"_links": {"parentDatastructure": {"href": "/mdr/adam/adamig-1-0/datastructures/BDS", "title": "Basic Data Structure", "type": "Data Structure"}, "parentProduct": {"href": "/mdr/adam/adamig-1-0", "title": "Analysis Data Model Implementation Guide Version 1.0", "type": "Implementation Guide"}, "parentVariableSet": {"href": "/mdr/adam/adamig-1-0/datastructures/BDS/varsets/AnalysisParameterVariables", "title": "Analysis Parameter Variables", "type": "Variable Set"}, "self": {"href": "/mdr/adam/adamig-1-0/datastructures/BDS/variables/PARAM", "title": "Parameter", "type": "Analysis Variable"}}, "core": "Req", "description": "The description of the analysis parameter. Examples include: \"Supine Systolic Blood Pressure (mm Hg)\", \"Log10 (Weight (kg))\", \"Time to First Hypertension Event (Days)\", \"Estimated Tumor Growth Rate\", etc. PARAM should be sufficient to describe unambiguously the contents of AVAL and/or AVALC. PARAM must include test, units (if appropriate), specimen type, location, position, and any other applicable qualifying information needed, any additional information such as transformation function, and indeed any text that is needed. PARAM may be longer than 40 characters in length. PARAM is often directly usable in Clinical Study Report displays. Note that in the ADaMIG, \"parameter\" is a synonym of \"analysis parameter.\"", "label": "Parameter", "name": "PARAM", "ordinal": "69", "simpleDatatype": "Char"}, {"_links": {"parentDatastructure": {"href": "/mdr/adam/adamig-1-0/datastructures/BDS", "title": "Basic Data Structure", "type": "Data Structure"}, "parentProduct": {"href": "/mdr/adam/adamig-1-0", "title": "Analysis Data Model Implementation Guide Version 1.0", "type": "Implementation Guide"}, "parentVariableSet": {"href": "/mdr/adam/adamig-1-0/datastructures/BDS/varsets/AnalysisParameterVariables", "title": "Analysis Parameter Variables", "type": "Variable Set"}, "self": {"href": "/mdr/adam/adamig-1-0/datastructures/BDS/variables/PARAMCD", "title": "Parameter Code", "type": "Analysis Variable"}}, "core": "Req", "description": "The short name of the analysis parameter in PARAM. Values of PARAMCD should follow SAS 5 variable naming conventions (8 characters or less; starts with a letter; contains only letters and digits). There must be a one-to-one mapping with PARAM. Examples: SYSBP, LWEIGHT, HYPEREVT.", "label": "Parameter Code", "name": "PARAMCD", "ordinal": "70", "simpleDatatype": "Char"}, {"_links": {"parentDatastructure": {"href": "/mdr/adam/adamig-1-0/datastructures/BDS", "title": "Basic Data Structure", "type": "Data Structure"}, "parentProduct": {"href": "/mdr/adam/adamig-1-0", "title": "Analysis Data Model Implementation Guide Version 1.0", "type": "Implementation Guide"}, "parentVariableSet": {"href": "/mdr/adam/adamig-1-0/datastructures/BDS/varsets/AnalysisParameterVariables", "title": "Analysis Parameter Variables", "type": "Variable Set"}, "self": {"href": "/mdr/adam/adamig-1-0/datastructures/BDS/variables/PARAMN", "title": "Parameter (N)", "type": "Analysis Variable"}}, "core": "Perm", "description": "Useful for ordering and programmatic manipulation. There must be a one-to-one mapping with PARAM. Must be an integer.", "label": "Parameter (N)", "name": "PARAMN", "ordinal": "71", "simpleDatatype": "Num"}, {"_links": {"codelist": [{"href": "/mdr/root/ct/adamct/codelists/C81225", "title": "Version-agnostic anchor resource for codelist C81225", "type": "Root Value Domain"}], "parentDatastructure": {"href": "/mdr/adam/adamig-1-0/datastructures/BDS", "title": "Basic Data Structure", "type": "Data Structure"}, "parentProduct": {"href": "/mdr/adam/adamig-1-0", "title": "Analysis Data Model Implementation Guide Version 1.0", "type": "Implementation Guide"}, "parentVariableSet": {"href": "/mdr/adam/adamig-1-0/datastructures/BDS/varsets/AnalysisParameterVariables", "title": "Analysis Parameter Variables", "type": "Variable Set"}, "self": {"href": "/mdr/adam/adamig-1-0/datastructures/BDS/variables/PARAMTYP", "title": "Parameter Type", "type": "Analysis Variable"}}, "codelistSubmissionValues": ["PARAMTYP"], "core": "Perm", "description": "Indicator of whether the parameter is derived as a function of one or more other parameters. This should not be confused with DTYPE which is relevant to derived AVAL and/or AVALC values.", "label": "Parameter Type", "name": "PARAMTYP", "ordinal": "72", "simpleDatatype": "Char"}, {"_links": {"parentDatastructure": {"href": "/mdr/adam/adamig-1-0/datastructures/BDS", "title": "Basic Data Structure", "type": "Data Structure"}, "parentProduct": {"href": "/mdr/adam/adamig-1-0", "title": "Analysis Data Model Implementation Guide Version 1.0", "type": "Implementation Guide"}, "parentVariableSet": {"href": "/mdr/adam/adamig-1-0/datastructures/BDS/varsets/AnalysisParameterVariables", "title": "Analysis Parameter Variables", "type": "Variable Set"}, "self": {"href": "/mdr/adam/adamig-1-0/datastructures/BDS/variables/PARCATy", "title": "Parameter Category y", "type": "Analysis Variable"}}, "core": "Perm", "description": "A categorization of PARAM. For example, value of PARCAT1 might group the parameters having to do with a particular questionnaire, lab specimen type, or area of investigation.", "label": "Parameter Category y", "name": "PARCATy", "ordinal": "73", "simpleDatatype": "Char"}, {"_links": {"parentDatastructure": {"href": "/mdr/adam/adamig-1-0/datastructures/BDS", "title": "Basic Data Structure", "type": "Data Structure"}, "parentProduct": {"href": "/mdr/adam/adamig-1-0", "title": "Analysis Data Model Implementation Guide Version 1.0", "type": "Implementation Guide"}, "parentVariableSet": {"href": "/mdr/adam/adamig-1-0/datastructures/BDS/varsets/AnalysisParameterVariables", "title": "Analysis Parameter Variables", "type": "Variable Set"}, "self": {"href": "/mdr/adam/adamig-1-0/datastructures/BDS/variables/PARCATyN", "title": "Parameter Category y (N)", "type": "Analysis Variable"}}, "core": "Perm", "description": "A numeric representation of PARCATy. This can be used for operations on PARCATy. There should be a one to one relationship between PARCATy and PARCATyN.", "label": "Parameter Category y (N)", "name": "PARCATyN", "ordinal": "74", "simpleDatatype": "Num"}, {"_links": {"parentDatastructure": {"href": "/mdr/adam/adamig-1-0/datastructures/BDS", "title": "Basic Data Structure", "type": "Data Structure"}, "parentProduct": {"href": "/mdr/adam/adamig-1-0", "title": "Analysis Data Model Implementation Guide Version 1.0", "type": "Implementation Guide"}, "parentVariableSet": {"href": "/mdr/adam/adamig-1-0/datastructures/BDS/varsets/AnalysisParameterVariables", "title": "Analysis Parameter Variables", "type": "Variable Set"}, "self": {"href": "/mdr/adam/adamig-1-0/datastructures/BDS/variables/AVAL", "title": "Analysis Value", "type": "Analysis Variable"}}, "core": "Req", "description": "Numeric analysis value described by PARAM.", "label": "Analysis Value", "name": "AVAL", "ordinal": "75", "simpleDatatype": "Num"}, {"_links": {"parentDatastructure": {"href": "/mdr/adam/adamig-1-0/datastructures/BDS", "title": "Basic Data Structure", "type": "Data Structure"}, "parentProduct": {"href": "/mdr/adam/adamig-1-0", "title": "Analysis Data Model Implementation Guide Version 1.0", "type": "Implementation Guide"}, "parentVariableSet": {"href": "/mdr/adam/adamig-1-0/datastructures/BDS/varsets/AnalysisParameterVariables", "title": "Analysis Parameter Variables", "type": "Variable Set"}, "self": {"href": "/mdr/adam/adamig-1-0/datastructures/BDS/variables/AVALC", "title": "Analysis Value (C)", "type": "Analysis Variable"}}, "core": "Req", "description": "Character analysis value described by PARAM. AVALC can be a character string mapping to AVAL, but if so there must be a one-to-one map between AVAL and AVALC within a given PARAM. AVALC should not be used to categorize the values of AVAL.", "label": "Analysis Value (C)", "name": "AVALC", "ordinal": "76", "simpleDatatype": "Char"}, {"_links": {"parentDatastructure": {"href": "/mdr/adam/adamig-1-0/datastructures/BDS", "title": "Basic Data Structure", "type": "Data Structure"}, "parentProduct": {"href": "/mdr/adam/adamig-1-0", "title": "Analysis Data Model Implementation Guide Version 1.0", "type": "Implementation Guide"}, "parentVariableSet": {"href": "/mdr/adam/adamig-1-0/datastructures/BDS/varsets/AnalysisParameterVariables", "title": "Analysis Parameter Variables", "type": "Variable Set"}, "self": {"href": "/mdr/adam/adamig-1-0/datastructures/BDS/variables/AVALCATy", "title": "Analysis Category y", "type": "Analysis Variable"}}, "core": "Perm", "description": "A categorical representation of AVAL and/or AVALC. Not necessarily a one-to-one mapping to AVAL and/or AVALC. For example, if PARAM is \"Headache Severity\" and AVAL has values 0, 1, 2, or 3, AVALCAT1 can categorize AVAL into \"None or Mild\" (for AVAL 1 or 2) and \"Moderate or Severe\" (for AVAL 3 or 4)", "label": "Analysis Category y", "name": "AVALCATy", "ordinal": "77", "simpleDatatype": "Char"}, {"_links": {"parentDatastructure": {"href": "/mdr/adam/adamig-1-0/datastructures/BDS", "title": "Basic Data Structure", "type": "Data Structure"}, "parentProduct": {"href": "/mdr/adam/adamig-1-0", "title": "Analysis Data Model Implementation Guide Version 1.0", "type": "Implementation Guide"}, "parentVariableSet": {"href": "/mdr/adam/adamig-1-0/datastructures/BDS/varsets/AnalysisParameterVariables", "title": "Analysis Parameter Variables", "type": "Variable Set"}, "self": {"href": "/mdr/adam/adamig-1-0/datastructures/BDS/variables/BASE", "title": "Baseline Value", "type": "Analysis Variable"}}, "core": "Cond", "description": "Baseline analysis value. Required if dataset supports analysis or review of baseline value or functions of baseline value. A baseline record may be derived (e.g., it may be an average) in which case DTYPE must also be populated. If BASE is populated for a parameter, and BASE is non-null for a subject for that parameter, then there must be a record flagged by ABLFL for that subject and parameter.", "label": "Baseline Value", "name": "BASE", "ordinal": "78", "simpleDatatype": "Num"}, {"_links": {"parentDatastructure": {"href": "/mdr/adam/adamig-1-0/datastructures/BDS", "title": "Basic Data Structure", "type": "Data Structure"}, "parentProduct": {"href": "/mdr/adam/adamig-1-0", "title": "Analysis Data Model Implementation Guide Version 1.0", "type": "Implementation Guide"}, "parentVariableSet": {"href": "/mdr/adam/adamig-1-0/datastructures/BDS/varsets/AnalysisParameterVariables", "title": "Analysis Parameter Variables", "type": "Variable Set"}, "self": {"href": "/mdr/adam/adamig-1-0/datastructures/BDS/variables/BASEC", "title": "Baseline Value (C)", "type": "Analysis Variable"}}, "core": "Perm", "description": "Baseline value of AVALC. May be needed when AVALC is of interest. There must be a one-to-one map between BASE and BASEC within a given PARAM if both are populated. The baseline record for AVALC must be the same as that for AVAL.", "label": "Baseline Value (C)", "name": "BASEC", "ordinal": "79", "simpleDatatype": "Char"}, {"_links": {"parentDatastructure": {"href": "/mdr/adam/adamig-1-0/datastructures/BDS", "title": "Basic Data Structure", "type": "Data Structure"}, "parentProduct": {"href": "/mdr/adam/adamig-1-0", "title": "Analysis Data Model Implementation Guide Version 1.0", "type": "Implementation Guide"}, "parentVariableSet": {"href": "/mdr/adam/adamig-1-0/datastructures/BDS/varsets/AnalysisParameterVariables", "title": "Analysis Parameter Variables", "type": "Variable Set"}, "self": {"href": "/mdr/adam/adamig-1-0/datastructures/BDS/variables/BASECATy", "title": "Baseline Category y", "type": "Analysis Variable"}}, "core": "Perm", "description": "A categorical representation of BASE. Not necessarily a one-to-one map to BASE. For example, if PARAM is \"Headache Severity\" and AVAL has values 0, 1, 2, or 3, BASECAT1 can categorize BASE into \"None or Mild\" (for BASE 1 or 2) and \"Moderate or Severe\" (for BASE 3 or 4)", "label": "Baseline Category y", "name": "BASECATy", "ordinal": "80", "simpleDatatype": "Char"}, {"_links": {"parentDatastructure": {"href": "/mdr/adam/adamig-1-0/datastructures/BDS", "title": "Basic Data Structure", "type": "Data Structure"}, "parentProduct": {"href": "/mdr/adam/adamig-1-0", "title": "Analysis Data Model Implementation Guide Version 1.0", "type": "Implementation Guide"}, "parentVariableSet": {"href": "/mdr/adam/adamig-1-0/datastructures/BDS/varsets/AnalysisParameterVariables", "title": "Analysis Parameter Variables", "type": "Variable Set"}, "self": {"href": "/mdr/adam/adamig-1-0/datastructures/BDS/variables/BASETYPE", "title": "Baseline Type", "type": "Analysis Variable"}}, "core": "Cond", "description": "Sponsor-defined text describing the definition of baseline relevant to the value of BASE on the current record. Required when there are multiple ways that baseline is defined. If used for a given PARAM, should be populated for all records of that PARAM. Refer to Section 4.2.1, Rule 6, for an example.", "label": "Baseline Type", "name": "BASETYPE", "ordinal": "81", "simpleDatatype": "Char"}, {"_links": {"parentDatastructure": {"href": "/mdr/adam/adamig-1-0/datastructures/BDS", "title": "Basic Data Structure", "type": "Data Structure"}, "parentProduct": {"href": "/mdr/adam/adamig-1-0", "title": "Analysis Data Model Implementation Guide Version 1.0", "type": "Implementation Guide"}, "parentVariableSet": {"href": "/mdr/adam/adamig-1-0/datastructures/BDS/varsets/AnalysisParameterVariables", "title": "Analysis Parameter Variables", "type": "Variable Set"}, "self": {"href": "/mdr/adam/adamig-1-0/datastructures/BDS/variables/CHG", "title": "Change from Baseline", "type": "Analysis Variable"}}, "core": "Perm", "description": "Change from baseline analysis value. Equal to AVAL-BASE. If used for a given PARAM, should be populated for all post-baseline records of that PARAM. The decision on how to populate pre-baseline and baseline values of CHG are left to sponsor choice.", "label": "Change from Baseline", "name": "CHG", "ordinal": "82", "simpleDatatype": "Num"}, {"_links": {"parentDatastructure": {"href": "/mdr/adam/adamig-1-0/datastructures/BDS", "title": "Basic Data Structure", "type": "Data Structure"}, "parentProduct": {"href": "/mdr/adam/adamig-1-0", "title": "Analysis Data Model Implementation Guide Version 1.0", "type": "Implementation Guide"}, "parentVariableSet": {"href": "/mdr/adam/adamig-1-0/datastructures/BDS/varsets/AnalysisParameterVariables", "title": "Analysis Parameter Variables", "type": "Variable Set"}, "self": {"href": "/mdr/adam/adamig-1-0/datastructures/BDS/variables/CHGCATy", "title": "Change from Baseline Category y", "type": "Analysis Variable"}}, "core": "Perm", "description": "A categorical representation of CHG. Not necessarily a one-to-one mapping to CHG. The definition of CHGCATy may vary by PARAM. For example, CHGCAT1 may be used to categorize CHG with respect to ranges of change in SYSBP; \"-10 to -5 mm Hg\", \"-5 to 0 mm Hg\" categories.", "label": "Change from Baseline Category y", "name": "CHGCATy", "ordinal": "83", "simpleDatatype": "Char"}, {"_links": {"parentDatastructure": {"href": "/mdr/adam/adamig-1-0/datastructures/BDS", "title": "Basic Data Structure", "type": "Data Structure"}, "parentProduct": {"href": "/mdr/adam/adamig-1-0", "title": "Analysis Data Model Implementation Guide Version 1.0", "type": "Implementation Guide"}, "parentVariableSet": {"href": "/mdr/adam/adamig-1-0/datastructures/BDS/varsets/AnalysisParameterVariables", "title": "Analysis Parameter Variables", "type": "Variable Set"}, "self": {"href": "/mdr/adam/adamig-1-0/datastructures/BDS/variables/PCHG", "title": "Percent Change from Baseline", "type": "Analysis Variable"}}, "core": "Perm", "description": "Percent change from baseline analysis value. Equal to ((AVAL-BASE)/BASE)*100. If used for a given PARAM, should be populated (when calculable) for all records of that PARAM. The decision on how to populate pre-baseline and baseline values of PCHG are left to sponsor choice.", "label": "Percent Change from Baseline", "name": "PCHG", "ordinal": "84", "simpleDatatype": "Num"}, {"_links": {"parentDatastructure": {"href": "/mdr/adam/adamig-1-0/datastructures/BDS", "title": "Basic Data Structure", "type": "Data Structure"}, "parentProduct": {"href": "/mdr/adam/adamig-1-0", "title": "Analysis Data Model Implementation Guide Version 1.0", "type": "Implementation Guide"}, "parentVariableSet": {"href": "/mdr/adam/adamig-1-0/datastructures/BDS/varsets/AnalysisParameterVariables", "title": "Analysis Parameter Variables", "type": "Variable Set"}, "self": {"href": "/mdr/adam/adamig-1-0/datastructures/BDS/variables/PCHGCATy", "title": "Percent Change from Baseline y", "type": "Analysis Variable"}}, "core": "Perm", "description": "A categorical representation of PCHG. Not necessarily a one-to-one mapping to PCHG. The definition of PCHGCATy may vary by PARAM. For example, PCHGCAT1 may be used to categorize PCHG with respect to ranges of change in SYSBP; \">5%\", \">10%\" categories.", "label": "Percent Change from Baseline y", "name": "PCHGCATy", "ordinal": "85", "simpleDatatype": "Char"}, {"_links": {"parentDatastructure": {"href": "/mdr/adam/adamig-1-0/datastructures/BDS", "title": "Basic Data Structure", "type": "Data Structure"}, "parentProduct": {"href": "/mdr/adam/adamig-1-0", "title": "Analysis Data Model Implementation Guide Version 1.0", "type": "Implementation Guide"}, "parentVariableSet": {"href": "/mdr/adam/adamig-1-0/datastructures/BDS/varsets/AnalysisParameterVariables", "title": "Analysis Parameter Variables", "type": "Variable Set"}, "self": {"href": "/mdr/adam/adamig-1-0/datastructures/BDS/variables/R2BASE", "title": "Ratio to Baseline", "type": "Analysis Variable"}}, "core": "Perm", "description": "AVAL / BASE", "label": "Ratio to Baseline", "name": "R2BASE", "ordinal": "86", "simpleDatatype": "Num"}, {"_links": {"parentDatastructure": {"href": "/mdr/adam/adamig-1-0/datastructures/BDS", "title": "Basic Data Structure", "type": "Data Structure"}, "parentProduct": {"href": "/mdr/adam/adamig-1-0", "title": "Analysis Data Model Implementation Guide Version 1.0", "type": "Implementation Guide"}, "parentVariableSet": {"href": "/mdr/adam/adamig-1-0/datastructures/BDS/varsets/AnalysisParameterVariables", "title": "Analysis Parameter Variables", "type": "Variable Set"}, "self": {"href": "/mdr/adam/adamig-1-0/datastructures/BDS/variables/R2AyLO", "title": "Ratio to Analysis Range y Lower Limit", "type": "Analysis Variable"}}, "core": "Perm", "description": "AVAL / AyLO. AyLO must exist in the analysis dataset.", "label": "Ratio to Analysis Range y Lower Limit", "name": "R2AyLO", "ordinal": "87", "simpleDatatype": "Num"}, {"_links": {"parentDatastructure": {"href": "/mdr/adam/adamig-1-0/datastructures/BDS", "title": "Basic Data Structure", "type": "Data Structure"}, "parentProduct": {"href": "/mdr/adam/adamig-1-0", "title": "Analysis Data Model Implementation Guide Version 1.0", "type": "Implementation Guide"}, "parentVariableSet": {"href": "/mdr/adam/adamig-1-0/datastructures/BDS/varsets/AnalysisParameterVariables", "title": "Analysis Parameter Variables", "type": "Variable Set"}, "self": {"href": "/mdr/adam/adamig-1-0/datastructures/BDS/variables/R2AyHI", "title": "Ratio to Analysis Range y Upper Limit", "type": "Analysis Variable"}}, "core": "Perm", "description": "AVAL / AyHI. AyHI must exist in the analysis dataset.", "label": "Ratio to Analysis Range y Upper Limit", "name": "R2AyHI", "ordinal": "88", "simpleDatatype": "Num"}, {"_links": {"parentDatastructure": {"href": "/mdr/adam/adamig-1-0/datastructures/BDS", "title": "Basic Data Structure", "type": "Data Structure"}, "parentProduct": {"href": "/mdr/adam/adamig-1-0", "title": "Analysis Data Model Implementation Guide Version 1.0", "type": "Implementation Guide"}, "parentVariableSet": {"href": "/mdr/adam/adamig-1-0/datastructures/BDS/varsets/AnalysisParameterVariables", "title": "Analysis Parameter Variables", "type": "Variable Set"}, "self": {"href": "/mdr/adam/adamig-1-0/datastructures/BDS/variables/SHIFTy", "title": "Shift y", "type": "Analysis Variable"}}, "core": "Perm", "description": "A shift in values depending on the defined pairing for group \"y\". SHIFTy can be based on the change in value of any of the following pairs (BASECATy, AVALCATy), (BNRIND, ANRIND), (BTOXGR, ATOXGR), (BASE, AVAL) or (BASEC, AVALC). Useful for shift tables. For example, \"NORMAL to HIGH\". The decision on how to populate baseline and pre-baseline values of SHIFTy are left to sponsor choice.", "label": "Shift y", "name": "SHIFTy", "ordinal": "89", "simpleDatatype": "Char"}, {"_links": {"parentDatastructure": {"href": "/mdr/adam/adamig-1-0/datastructures/BDS", "title": "Basic Data Structure", "type": "Data Structure"}, "parentProduct": {"href": "/mdr/adam/adamig-1-0", "title": "Analysis Data Model Implementation Guide Version 1.0", "type": "Implementation Guide"}, "parentVariableSet": {"href": "/mdr/adam/adamig-1-0/datastructures/BDS/varsets/AnalysisParameterVariables", "title": "Analysis Parameter Variables", "type": "Variable Set"}, "self": {"href": "/mdr/adam/adamig-1-0/datastructures/BDS/variables/SHIFTyN", "title": "Shift y (N)", "type": "Analysis Variable"}}, "core": "Perm", "description": "Numeric version of SHIFT. SHIFTN has a one-to-one mapping relationship with SHIFT. The decision on how to populate baseline and pre-baseline values of SHIFTN are left to sponsor choice.", "label": "Shift y (N)", "name": "SHIFTyN", "ordinal": "90", "simpleDatatype": "Num"}, {"_links": {"parentDatastructure": {"href": "/mdr/adam/adamig-1-0/datastructures/BDS", "title": "Basic Data Structure", "type": "Data Structure"}, "parentProduct": {"href": "/mdr/adam/adamig-1-0", "title": "Analysis Data Model Implementation Guide Version 1.0", "type": "Implementation Guide"}, "parentVariableSet": {"href": "/mdr/adam/adamig-1-0/datastructures/BDS/varsets/AnalysisParameterVariables", "title": "Analysis Parameter Variables", "type": "Variable Set"}, "self": {"href": "/mdr/adam/adamig-1-0/datastructures/BDS/variables/CRITy", "title": "Analysis Criterion y", "type": "Analysis Variable"}}, "core": "Perm", "description": "A text string identifying a pre-specified criterion, for example SYSBP > 90. In some cases, the presence of the text string indicates that the criterion is satisfied on this record, while a null value indicates that the criterion is not satisfied. In other cases, the text string identifies the criterion being evaluated, but whether or not the criterion is satisfied is indicated by the value of the variable CRITyFL. See CRITyFL and CRITyFN in Section 3.2.6. Refer to Section 4.7 for additional discussion of CRITy, CRITyFL and CRITyFN.", "label": "Analysis Criterion y", "name": "CRITy", "ordinal": "91", "simpleDatatype": "Char"}], "label": "Analysis Parameter Variables", "name": "Analysis Parameter Variables", "ordinal": "4"}, {"_links": {"parentDatastructure": {"href": "/mdr/adam/adamig-1-0/datastructures/BDS", "title": "Basic Data Structure", "type": "Data Structure"}, "parentProduct": {"href": "/mdr/adam/adamig-1-0", "title": "Analysis Data Model Implementation Guide Version 1.0", "type": "Implementation Guide"}, "self": {"href": "/mdr/adam/adamig-1-0/datastructures/BDS/varsets/AnalysisDescriptorVariables", "title": "Analysis Descriptor Variables", "type": "Variable Set"}}, "analysisVariables": [{"_links": {"codelist": [{"href": "/mdr/root/ct/adamct/codelists/C81224", "title": "Version-agnostic anchor resource for codelist C81224", "type": "Root Value Domain"}], "parentDatastructure": {"href": "/mdr/adam/adamig-1-0/datastructures/BDS", "title": "Basic Data Structure", "type": "Data Structure"}, "parentProduct": {"href": "/mdr/adam/adamig-1-0", "title": "Analysis Data Model Implementation Guide Version 1.0", "type": "Implementation Guide"}, "parentVariableSet": {"href": "/mdr/adam/adamig-1-0/datastructures/BDS/varsets/AnalysisDescriptorVariables", "title": "Analysis Descriptor Variables", "type": "Variable Set"}, "self": {"href": "/mdr/adam/adamig-1-0/datastructures/BDS/variables/DTYPE", "title": "Derivation Type", "type": "Analysis Variable"}}, "codelistSubmissionValues": ["DTYPE"], "core": "Cond", "description": "Analysis value derivation method. DTYPE is used to denote, and is required to be populated, when the value of AVAL or AVALC (and thus the entire record) has been imputed, derived, or copied from other record(s). DTYPE is required to be populated even if AVAL and AVALC are null on the derived record. DTYPE is not used to denote that an analysis parameter is derived. PARAMTYP may be used to indicate that an entire parameter is derived. For each value of DTYPE, the precise derivation algorithm must be defined in analysis variable metadata, even for DTYPE values in the controlled terminology. See Section 4 for examples of the use of DTYPE. Examples of DTYPE values LOCF = last observation carried forward. WOCF = worst observation carried forward. AVERAGE = average of values.", "label": "Derivation Type", "name": "DTYPE", "ordinal": "92", "simpleDatatype": "Char"}], "label": "Analysis Descriptor Variables", "name": "Analysis Descriptor Variables", "ordinal": "5"}, {"_links": {"parentDatastructure": {"href": "/mdr/adam/adamig-1-0/datastructures/BDS", "title": "Basic Data Structure", "type": "Data Structure"}, "parentProduct": {"href": "/mdr/adam/adamig-1-0", "title": "Analysis Data Model Implementation Guide Version 1.0", "type": "Implementation Guide"}, "self": {"href": "/mdr/adam/adamig-1-0/datastructures/BDS/varsets/AnalysisVisitWindowingVariables", "title": "Analysis Visit Windowing Variables", "type": "Variable Set"}}, "analysisVariables": [{"_links": {"parentDatastructure": {"href": "/mdr/adam/adamig-1-0/datastructures/BDS", "title": "Basic Data Structure", "type": "Data Structure"}, "parentProduct": {"href": "/mdr/adam/adamig-1-0", "title": "Analysis Data Model Implementation Guide Version 1.0", "type": "Implementation Guide"}, "parentVariableSet": {"href": "/mdr/adam/adamig-1-0/datastructures/BDS/varsets/AnalysisVisitWindowingVariables", "title": "Analysis Visit Windowing Variables", "type": "Variable Set"}, "self": {"href": "/mdr/adam/adamig-1-0/datastructures/BDS/variables/AWRANGE", "title": "Analysis Window Valid Relative Range", "type": "Analysis Variable"}}, "core": "Perm", "description": "The range of values that are valid for a given analysis timepoint (a given value of AVISIT). For example, \"5-9 DAYS\".", "label": "Analysis Window Valid Relative Range", "name": "AWRANGE", "ordinal": "93", "simpleDatatype": "Char"}, {"_links": {"parentDatastructure": {"href": "/mdr/adam/adamig-1-0/datastructures/BDS", "title": "Basic Data Structure", "type": "Data Structure"}, "parentProduct": {"href": "/mdr/adam/adamig-1-0", "title": "Analysis Data Model Implementation Guide Version 1.0", "type": "Implementation Guide"}, "parentVariableSet": {"href": "/mdr/adam/adamig-1-0/datastructures/BDS/varsets/AnalysisVisitWindowingVariables", "title": "Analysis Visit Windowing Variables", "type": "Variable Set"}, "self": {"href": "/mdr/adam/adamig-1-0/datastructures/BDS/variables/AWTARGET", "title": "Analysis Window Target", "type": "Analysis Variable"}}, "core": "Perm", "description": "The target or most desired analysis relative day (ADY) value or analysis relative time (ARELTM) value for a given value of AVISIT.", "label": "Analysis Window Target", "name": "AWTARGET", "ordinal": "94", "simpleDatatype": "Num"}, {"_links": {"parentDatastructure": {"href": "/mdr/adam/adamig-1-0/datastructures/BDS", "title": "Basic Data Structure", "type": "Data Structure"}, "parentProduct": {"href": "/mdr/adam/adamig-1-0", "title": "Analysis Data Model Implementation Guide Version 1.0", "type": "Implementation Guide"}, "parentVariableSet": {"href": "/mdr/adam/adamig-1-0/datastructures/BDS/varsets/AnalysisVisitWindowingVariables", "title": "Analysis Visit Windowing Variables", "type": "Variable Set"}, "self": {"href": "/mdr/adam/adamig-1-0/datastructures/BDS/variables/AWTDIFF", "title": "Analysis Window Diff from Target", "type": "Analysis Variable"}}, "core": "Perm", "description": "Absolute difference between ADY or ARELTM and AWTARGET. It will be necessary to adjust for the fact that there is no day 0 in the event that ADY and AWTARGET are not of the same sign. If the sign of the difference is important, then AWTDIFF might have to be used in conjunction with ADY or ARELTM and possibly AWTARGET when choosing among records.", "label": "Analysis Window Diff from Target", "name": "AWTDIFF", "ordinal": "95", "simpleDatatype": "Num"}, {"_links": {"parentDatastructure": {"href": "/mdr/adam/adamig-1-0/datastructures/BDS", "title": "Basic Data Structure", "type": "Data Structure"}, "parentProduct": {"href": "/mdr/adam/adamig-1-0", "title": "Analysis Data Model Implementation Guide Version 1.0", "type": "Implementation Guide"}, "parentVariableSet": {"href": "/mdr/adam/adamig-1-0/datastructures/BDS/varsets/AnalysisVisitWindowingVariables", "title": "Analysis Visit Windowing Variables", "type": "Variable Set"}, "self": {"href": "/mdr/adam/adamig-1-0/datastructures/BDS/variables/AWLO", "title": "Analysis Window Beginning Timepoint", "type": "Analysis Variable"}}, "core": "Perm", "description": "The value of the beginning timepoint (inclusive) needs to be used in conjunction to AWRANGE. For example, if AWRANGE is\"5-9 DAYS\", then AWLO is \"5\".", "label": "Analysis Window Beginning Timepoint", "name": "AWLO", "ordinal": "96", "simpleDatatype": "Num"}, {"_links": {"parentDatastructure": {"href": "/mdr/adam/adamig-1-0/datastructures/BDS", "title": "Basic Data Structure", "type": "Data Structure"}, "parentProduct": {"href": "/mdr/adam/adamig-1-0", "title": "Analysis Data Model Implementation Guide Version 1.0", "type": "Implementation Guide"}, "parentVariableSet": {"href": "/mdr/adam/adamig-1-0/datastructures/BDS/varsets/AnalysisVisitWindowingVariables", "title": "Analysis Visit Windowing Variables", "type": "Variable Set"}, "self": {"href": "/mdr/adam/adamig-1-0/datastructures/BDS/variables/AWHI", "title": "Analysis Window Ending Timepoint", "type": "Analysis Variable"}}, "core": "Perm", "description": "The value of the ending timepoint (inclusive) needs to be used in conjunction to AWRANGE. For example, if AWRANGE is\"5-9 DAYS\", then AWHI is \"9\".", "label": "Analysis Window Ending Timepoint", "name": "AWHI", "ordinal": "97", "simpleDatatype": "Num"}, {"_links": {"parentDatastructure": {"href": "/mdr/adam/adamig-1-0/datastructures/BDS", "title": "Basic Data Structure", "type": "Data Structure"}, "parentProduct": {"href": "/mdr/adam/adamig-1-0", "title": "Analysis Data Model Implementation Guide Version 1.0", "type": "Implementation Guide"}, "parentVariableSet": {"href": "/mdr/adam/adamig-1-0/datastructures/BDS/varsets/AnalysisVisitWindowingVariables", "title": "Analysis Visit Windowing Variables", "type": "Variable Set"}, "self": {"href": "/mdr/adam/adamig-1-0/datastructures/BDS/variables/AWU", "title": "Analysis Window Unit", "type": "Analysis Variable"}}, "core": "Perm", "description": "Unit used for AWLO and AWHI. Examples: DAYS, HOURS.", "label": "Analysis Window Unit", "name": "AWU", "ordinal": "98", "simpleDatatype": "Char"}], "label": "Analysis Visit Windowing Variables", "name": "Analysis Visit Windowing Variables", "ordinal": "6"}, {"_links": {"parentDatastructure": {"href": "/mdr/adam/adamig-1-0/datastructures/BDS", "title": "Basic Data Structure", "type": "Data Structure"}, "parentProduct": {"href": "/mdr/adam/adamig-1-0", "title": "Analysis Data Model Implementation Guide Version 1.0", "type": "Implementation Guide"}, "self": {"href": "/mdr/adam/adamig-1-0/datastructures/BDS/varsets/TimetoEventVariables", "title": "Time to Event Variables", "type": "Variable Set"}}, "analysisVariables": [{"_links": {"parentDatastructure": {"href": "/mdr/adam/adamig-1-0/datastructures/BDS", "title": "Basic Data Structure", "type": "Data Structure"}, "parentProduct": {"href": "/mdr/adam/adamig-1-0", "title": "Analysis Data Model Implementation Guide Version 1.0", "type": "Implementation Guide"}, "parentVariableSet": {"href": "/mdr/adam/adamig-1-0/datastructures/BDS/varsets/TimetoEventVariables", "title": "Time to Event Variables", "type": "Variable Set"}, "self": {"href": "/mdr/adam/adamig-1-0/datastructures/BDS/variables/STARTDT", "title": "Time to Event Origin Date for Subject", "type": "Analysis Variable"}}, "core": "Perm", "description": "The original date of risk for the time-to-event analysis. This is generally the time at which a subject is first at risk of the event of interest (as defined in the protocol or Statistical Analysis Plan). For example, this may be the randomization date or the date of first study therapy exposure.", "label": "Time to Event Origin Date for Subject", "name": "STARTDT", "ordinal": "99", "simpleDatatype": "Num"}, {"_links": {"parentDatastructure": {"href": "/mdr/adam/adamig-1-0/datastructures/BDS", "title": "Basic Data Structure", "type": "Data Structure"}, "parentProduct": {"href": "/mdr/adam/adamig-1-0", "title": "Analysis Data Model Implementation Guide Version 1.0", "type": "Implementation Guide"}, "parentVariableSet": {"href": "/mdr/adam/adamig-1-0/datastructures/BDS/varsets/TimetoEventVariables", "title": "Time to Event Variables", "type": "Variable Set"}, "self": {"href": "/mdr/adam/adamig-1-0/datastructures/BDS/variables/CNSR", "title": "Censor", "type": "Analysis Variable"}}, "core": "Cond", "description": "Defines whether the event was censored (period of observation truncated prior to event being observed). It is strongly recommended to use 0 as an event indicator and positive integers as censoring indicators. It is also recommended that unique positive integers be used to indicate coded descriptions of censoring reasons. CNSR is required for time-to-event parameters.", "label": "Censor", "name": "CNSR", "ordinal": "100", "simpleDatatype": "Num"}, {"_links": {"parentDatastructure": {"href": "/mdr/adam/adamig-1-0/datastructures/BDS", "title": "Basic Data Structure", "type": "Data Structure"}, "parentProduct": {"href": "/mdr/adam/adamig-1-0", "title": "Analysis Data Model Implementation Guide Version 1.0", "type": "Implementation Guide"}, "parentVariableSet": {"href": "/mdr/adam/adamig-1-0/datastructures/BDS/varsets/TimetoEventVariables", "title": "Time to Event Variables", "type": "Variable Set"}, "self": {"href": "/mdr/adam/adamig-1-0/datastructures/BDS/variables/EVNTDESC", "title": "Event or Censoring Description", "type": "Analysis Variable"}}, "core": "Perm", "description": "Description of the event of interest or censoring reason.", "label": "Event or Censoring Description", "name": "EVNTDESC", "ordinal": "101", "simpleDatatype": "Char"}], "label": "Time to Event Variables", "name": "Time to Event Variables", "ordinal": "7"}, {"_links": {"parentDatastructure": {"href": "/mdr/adam/adamig-1-0/datastructures/BDS", "title": "Basic Data Structure", "type": "Data Structure"}, "parentProduct": {"href": "/mdr/adam/adamig-1-0", "title": "Analysis Data Model Implementation Guide Version 1.0", "type": "Implementation Guide"}, "self": {"href": "/mdr/adam/adamig-1-0/datastructures/BDS/varsets/LabRelatedAnalysisVariables", "title": "Lab Related Analysis Variables", "type": "Variable Set"}}, "analysisVariables": [{"_links": {"parentDatastructure": {"href": "/mdr/adam/adamig-1-0/datastructures/BDS", "title": "Basic Data Structure", "type": "Data Structure"}, "parentProduct": {"href": "/mdr/adam/adamig-1-0", "title": "Analysis Data Model Implementation Guide Version 1.0", "type": "Implementation Guide"}, "parentVariableSet": {"href": "/mdr/adam/adamig-1-0/datastructures/BDS/varsets/LabRelatedAnalysisVariables", "title": "Lab Related Analysis Variables", "type": "Variable Set"}, "self": {"href": "/mdr/adam/adamig-1-0/datastructures/BDS/variables/ATOXGR", "title": "Analysis Toxicity Grade", "type": "Analysis Variable"}}, "core": "Perm", "description": "Toxicity grade for analysis; may be based on SDTM --TOXGR or an imputed or assigned value.", "label": "Analysis Toxicity Grade", "name": "ATOXGR", "ordinal": "102", "simpleDatatype": "Char"}, {"_links": {"parentDatastructure": {"href": "/mdr/adam/adamig-1-0/datastructures/BDS", "title": "Basic Data Structure", "type": "Data Structure"}, "parentProduct": {"href": "/mdr/adam/adamig-1-0", "title": "Analysis Data Model Implementation Guide Version 1.0", "type": "Implementation Guide"}, "parentVariableSet": {"href": "/mdr/adam/adamig-1-0/datastructures/BDS/varsets/LabRelatedAnalysisVariables", "title": "Lab Related Analysis Variables", "type": "Variable Set"}, "self": {"href": "/mdr/adam/adamig-1-0/datastructures/BDS/variables/BTOXGR", "title": "Baseline Toxicity Grade", "type": "Analysis Variable"}}, "core": "Perm", "description": "ATOXGR of the baseline record identified by ABLFL.", "label": "Baseline Toxicity Grade", "name": "BTOXGR", "ordinal": "103", "simpleDatatype": "Char"}, {"_links": {"parentDatastructure": {"href": "/mdr/adam/adamig-1-0/datastructures/BDS", "title": "Basic Data Structure", "type": "Data Structure"}, "parentProduct": {"href": "/mdr/adam/adamig-1-0", "title": "Analysis Data Model Implementation Guide Version 1.0", "type": "Implementation Guide"}, "parentVariableSet": {"href": "/mdr/adam/adamig-1-0/datastructures/BDS/varsets/LabRelatedAnalysisVariables", "title": "Lab Related Analysis Variables", "type": "Variable Set"}, "self": {"href": "/mdr/adam/adamig-1-0/datastructures/BDS/variables/ANRIND", "title": "Analysis Reference Range Indicator", "type": "Analysis Variable"}}, "core": "Perm", "description": "Normal range indicator for analysis; may be based on SDTM --NRIND or an imputed or assigned value.", "label": "Analysis Reference Range Indicator", "name": "ANRIND", "ordinal": "104", "simpleDatatype": "Char"}, {"_links": {"parentDatastructure": {"href": "/mdr/adam/adamig-1-0/datastructures/BDS", "title": "Basic Data Structure", "type": "Data Structure"}, "parentProduct": {"href": "/mdr/adam/adamig-1-0", "title": "Analysis Data Model Implementation Guide Version 1.0", "type": "Implementation Guide"}, "parentVariableSet": {"href": "/mdr/adam/adamig-1-0/datastructures/BDS/varsets/LabRelatedAnalysisVariables", "title": "Lab Related Analysis Variables", "type": "Variable Set"}, "self": {"href": "/mdr/adam/adamig-1-0/datastructures/BDS/variables/BNRIND", "title": "Baseline Reference Range Indicator", "type": "Analysis Variable"}}, "core": "Perm", "description": "ANRIND of the baseline record identified by ABLFL.", "label": "Baseline Reference Range Indicator", "name": "BNRIND", "ordinal": "105", "simpleDatatype": "Char"}, {"_links": {"parentDatastructure": {"href": "/mdr/adam/adamig-1-0/datastructures/BDS", "title": "Basic Data Structure", "type": "Data Structure"}, "parentProduct": {"href": "/mdr/adam/adamig-1-0", "title": "Analysis Data Model Implementation Guide Version 1.0", "type": "Implementation Guide"}, "parentVariableSet": {"href": "/mdr/adam/adamig-1-0/datastructures/BDS/varsets/LabRelatedAnalysisVariables", "title": "Lab Related Analysis Variables", "type": "Variable Set"}, "self": {"href": "/mdr/adam/adamig-1-0/datastructures/BDS/variables/ANRLO", "title": "Analysis Normal Range Lower Limit", "type": "Analysis Variable"}}, "core": "Perm", "description": "Normal range lower limit for analysis; may be based on SDTM --NRLO or an imputed or assigned value.", "label": "Analysis Normal Range Lower Limit", "name": "ANRLO", "ordinal": "106", "simpleDatatype": "Char"}, {"_links": {"parentDatastructure": {"href": "/mdr/adam/adamig-1-0/datastructures/BDS", "title": "Basic Data Structure", "type": "Data Structure"}, "parentProduct": {"href": "/mdr/adam/adamig-1-0", "title": "Analysis Data Model Implementation Guide Version 1.0", "type": "Implementation Guide"}, "parentVariableSet": {"href": "/mdr/adam/adamig-1-0/datastructures/BDS/varsets/LabRelatedAnalysisVariables", "title": "Lab Related Analysis Variables", "type": "Variable Set"}, "self": {"href": "/mdr/adam/adamig-1-0/datastructures/BDS/variables/ANRHI", "title": "Analysis Normal Range Upper Limit", "type": "Analysis Variable"}}, "core": "Perm", "description": "Normal range upper limit for analysis; may be based on SDTM --NRHI or an imputed or assigned value.", "label": "Analysis Normal Range Upper Limit", "name": "ANRHI", "ordinal": "107", "simpleDatatype": "Char"}, {"_links": {"parentDatastructure": {"href": "/mdr/adam/adamig-1-0/datastructures/BDS", "title": "Basic Data Structure", "type": "Data Structure"}, "parentProduct": {"href": "/mdr/adam/adamig-1-0", "title": "Analysis Data Model Implementation Guide Version 1.0", "type": "Implementation Guide"}, "parentVariableSet": {"href": "/mdr/adam/adamig-1-0/datastructures/BDS/varsets/LabRelatedAnalysisVariables", "title": "Lab Related Analysis Variables", "type": "Variable Set"}, "self": {"href": "/mdr/adam/adamig-1-0/datastructures/BDS/variables/AyLO", "title": "Analysis Range y Lower Limit", "type": "Analysis Variable"}}, "core": "Cond", "description": "AyLO and/or AyHI are used where there are multiple ranges used for analysis. AyLO and/or AyHI are created to capture the different levels of cutoff values used to determine whether an analysis is within a clinically acceptable value range or outside that value range. AyLO and/or AyHI are usually but not necessarily constants, parameter-specific constants, or subject-specific constants. AyLO must be included if R2AyLO is included in the dataset.", "label": "Analysis Range y Lower Limit", "name": "AyLO", "ordinal": "108", "simpleDatatype": "Char"}, {"_links": {"parentDatastructure": {"href": "/mdr/adam/adamig-1-0/datastructures/BDS", "title": "Basic Data Structure", "type": "Data Structure"}, "parentProduct": {"href": "/mdr/adam/adamig-1-0", "title": "Analysis Data Model Implementation Guide Version 1.0", "type": "Implementation Guide"}, "parentVariableSet": {"href": "/mdr/adam/adamig-1-0/datastructures/BDS/varsets/LabRelatedAnalysisVariables", "title": "Lab Related Analysis Variables", "type": "Variable Set"}, "self": {"href": "/mdr/adam/adamig-1-0/datastructures/BDS/variables/AyHI", "title": "Analysis Range y Upper Limit", "type": "Analysis Variable"}}, "core": "Cond", "description": "See AyLO. For example, if ECG QTc values are summarized based on values 450, values >480, and values >500, there is a need for 3 \"hi value\" range variables to calculate values against: A1HI=450, A2HI=480, A3HI=500. AyHI must be included if R2AyHI is included in the dataset.", "label": "Analysis Range y Upper Limit", "name": "AyHI", "ordinal": "109", "simpleDatatype": "Char"}], "label": "Lab Related Analysis Variables", "name": "Lab Related Analysis Variables", "ordinal": "8"}, {"_links": {"parentDatastructure": {"href": "/mdr/adam/adamig-1-0/datastructures/BDS", "title": "Basic Data Structure", "type": "Data Structure"}, "parentProduct": {"href": "/mdr/adam/adamig-1-0", "title": "Analysis Data Model Implementation Guide Version 1.0", "type": "Implementation Guide"}, "self": {"href": "/mdr/adam/adamig-1-0/datastructures/BDS/varsets/FlagVariables", "title": "Flag Variables", "type": "Variable Set"}}, "analysisVariables": [{"_links": {"parentDatastructure": {"href": "/mdr/adam/adamig-1-0/datastructures/BDS", "title": "Basic Data Structure", "type": "Data Structure"}, "parentProduct": {"href": "/mdr/adam/adamig-1-0", "title": "Analysis Data Model Implementation Guide Version 1.0", "type": "Implementation Guide"}, "parentVariableSet": {"href": "/mdr/adam/adamig-1-0/datastructures/BDS/varsets/FlagVariables", "title": "Flag Variables", "type": "Variable Set"}, "self": {"href": "/mdr/adam/adamig-1-0/datastructures/BDS/variables/ABLFL", "title": "Baseline Record Flag", "type": "Analysis Variable"}}, "core": "Cond", "description": "Character indicator to identify the baseline record for each parameter, or if there is more than one baseline definition, for each parameter and baseline type (BASETYPE). See BASETYPE in Table 3.2.4.1. ABLFL is required if BASE is present in the dataset. A baseline record may be derived (e.g., it may be an average), in which case DTYPE must also be populated. If BASE is populated for a parameter, and BASE is non-null for a subject for that parameter, then there must be a record flagged by ABLFL for that subject and parameter.", "label": "Baseline Record Flag", "name": "ABLFL", "ordinal": "110", "simpleDatatype": "Char", "valueList": ["Y"]}, {"_links": {"parentDatastructure": {"href": "/mdr/adam/adamig-1-0/datastructures/BDS", "title": "Basic Data Structure", "type": "Data Structure"}, "parentProduct": {"href": "/mdr/adam/adamig-1-0", "title": "Analysis Data Model Implementation Guide Version 1.0", "type": "Implementation Guide"}, "parentVariableSet": {"href": "/mdr/adam/adamig-1-0/datastructures/BDS/varsets/FlagVariables", "title": "Flag Variables", "type": "Variable Set"}, "self": {"href": "/mdr/adam/adamig-1-0/datastructures/BDS/variables/ABLFN", "title": "Baseline Record Flag (N)", "type": "Analysis Variable"}}, "core": "Perm", "description": "Numeric indicator to identify the baseline record for each parameter, or if there is more than one baseline definition, for each parameter and baseline type (BASETYPE).", "label": "Baseline Record Flag (N)", "name": "ABLFN", "ordinal": "111", "simpleDatatype": "Num", "valueList": ["1"]}, {"_links": {"parentDatastructure": {"href": "/mdr/adam/adamig-1-0/datastructures/BDS", "title": "Basic Data Structure", "type": "Data Structure"}, "parentProduct": {"href": "/mdr/adam/adamig-1-0", "title": "Analysis Data Model Implementation Guide Version 1.0", "type": "Implementation Guide"}, "parentVariableSet": {"href": "/mdr/adam/adamig-1-0/datastructures/BDS/varsets/FlagVariables", "title": "Flag Variables", "type": "Variable Set"}, "self": {"href": "/mdr/adam/adamig-1-0/datastructures/BDS/variables/ANLzzFL", "title": "Analysis Record Flag zz", "type": "Analysis Variable"}}, "core": "Cond", "description": "ANLzzFL is a conditionally required flag to be used in addition to other selection variables when the other selection variables in combination are insufficient to identify the exact set of records used for one or more analyses. Often one ANLzzFL will serve to support the accurate selection of records for more than one analysis. When one is defining the set of records used in a particular analysis or family of analyses, ANLzzFL is supplemental to, and is intended to be used in conjunction with, other selection variables, such as subject-level, parameter-level and record-level population flags, AVISIT, DTYPE, grouping variables such as SITEGRy, and others. Every record selection algorithm \"zz\" (i.e., every algorithm for populating an ANLzzFL) must be defined in variable metadata. When the set of records that the algorithm \"zz\" operates on is pre-filtered by application of other criteria, such as a record-level population flag, then the selection algorithm definition in the metadata must so specify. Note that the ANLzzFL value of Y indicates that the record fulfilled the requirements of the algorithm, but does not necessarily imply that the record was actually used in one or more analyses, as whether or not a record is used also depends on the other selection variables applied. The ANLzzFL flag is useful in many circumstances; an example is when there is more than one record for an analysis timepoint within a subject and parameter, as it can be used to identify the record chosen to represent the timepoint for an analysis. \"zz\" is an index for a record selection algorithm, such as \"record closest to target relative day for the AVISIT, with ties broken by the latest record, for each AVISIT within <list of AVISITS>.\"", "label": "Analysis Record Flag zz", "name": "ANLzzFL", "ordinal": "112", "simpleDatatype": "Char", "valueList": ["Y"]}, {"_links": {"parentDatastructure": {"href": "/mdr/adam/adamig-1-0/datastructures/BDS", "title": "Basic Data Structure", "type": "Data Structure"}, "parentProduct": {"href": "/mdr/adam/adamig-1-0", "title": "Analysis Data Model Implementation Guide Version 1.0", "type": "Implementation Guide"}, "parentVariableSet": {"href": "/mdr/adam/adamig-1-0/datastructures/BDS/varsets/FlagVariables", "title": "Flag Variables", "type": "Variable Set"}, "self": {"href": "/mdr/adam/adamig-1-0/datastructures/BDS/variables/ANLzzFN", "title": "Analyzed Record Flag zz (N)", "type": "Analysis Variable"}}, "core": "Perm", "description": "Numeric version of ANLzzFL.", "label": "Analyzed Record Flag zz (N)", "name": "ANLzzFN", "ordinal": "113", "simpleDatatype": "Num", "valueList": ["1"]}, {"_links": {"parentDatastructure": {"href": "/mdr/adam/adamig-1-0/datastructures/BDS", "title": "Basic Data Structure", "type": "Data Structure"}, "parentProduct": {"href": "/mdr/adam/adamig-1-0", "title": "Analysis Data Model Implementation Guide Version 1.0", "type": "Implementation Guide"}, "parentVariableSet": {"href": "/mdr/adam/adamig-1-0/datastructures/BDS/varsets/FlagVariables", "title": "Flag Variables", "type": "Variable Set"}, "self": {"href": "/mdr/adam/adamig-1-0/datastructures/BDS/variables/ONTRTFL", "title": "On Treatment Record Flag", "type": "Analysis Variable"}}, "core": "Perm", "description": "Character indicator of whether the observation occurred while the subject was on treatment.", "label": "On Treatment Record Flag", "name": "ONTRTFL", "ordinal": "114", "simpleDatatype": "Char", "valueList": ["Y"]}, {"_links": {"parentDatastructure": {"href": "/mdr/adam/adamig-1-0/datastructures/BDS", "title": "Basic Data Structure", "type": "Data Structure"}, "parentProduct": {"href": "/mdr/adam/adamig-1-0", "title": "Analysis Data Model Implementation Guide Version 1.0", "type": "Implementation Guide"}, "parentVariableSet": {"href": "/mdr/adam/adamig-1-0/datastructures/BDS/varsets/FlagVariables", "title": "Flag Variables", "type": "Variable Set"}, "self": {"href": "/mdr/adam/adamig-1-0/datastructures/BDS/variables/ONTRTFN", "title": "On Treatment Record Flag (N)", "type": "Analysis Variable"}}, "core": "Perm", "description": "Numeric indicator of whether the observation occurred while the subject was on treatment.", "label": "On Treatment Record Flag (N)", "name": "ONTRTFN", "ordinal": "115", "simpleDatatype": "Num", "valueList": ["1"]}, {"_links": {"parentDatastructure": {"href": "/mdr/adam/adamig-1-0/datastructures/BDS", "title": "Basic Data Structure", "type": "Data Structure"}, "parentProduct": {"href": "/mdr/adam/adamig-1-0", "title": "Analysis Data Model Implementation Guide Version 1.0", "type": "Implementation Guide"}, "parentVariableSet": {"href": "/mdr/adam/adamig-1-0/datastructures/BDS/varsets/FlagVariables", "title": "Flag Variables", "type": "Variable Set"}, "self": {"href": "/mdr/adam/adamig-1-0/datastructures/BDS/variables/LVOTFL", "title": "Last Value On Treatment Record Flag", "type": "Analysis Variable"}}, "core": "Perm", "description": "Character indicator of the last non-missing value on treatment for each parameter.", "label": "Last Value On Treatment Record Flag", "name": "LVOTFL", "ordinal": "116", "simpleDatatype": "Char", "valueList": ["Y"]}, {"_links": {"parentDatastructure": {"href": "/mdr/adam/adamig-1-0/datastructures/BDS", "title": "Basic Data Structure", "type": "Data Structure"}, "parentProduct": {"href": "/mdr/adam/adamig-1-0", "title": "Analysis Data Model Implementation Guide Version 1.0", "type": "Implementation Guide"}, "parentVariableSet": {"href": "/mdr/adam/adamig-1-0/datastructures/BDS/varsets/FlagVariables", "title": "Flag Variables", "type": "Variable Set"}, "self": {"href": "/mdr/adam/adamig-1-0/datastructures/BDS/variables/LVOTFN", "title": "Last Value On Treatment Record Flag (N)", "type": "Analysis Variable"}}, "core": "Perm", "description": "Numeric indicator of the last non-missing value on treatment for each parameter.", "label": "Last Value On Treatment Record Flag (N)", "name": "LVOTFN", "ordinal": "117", "simpleDatatype": "Num", "valueList": ["1"]}, {"_links": {"parentDatastructure": {"href": "/mdr/adam/adamig-1-0/datastructures/BDS", "title": "Basic Data Structure", "type": "Data Structure"}, "parentProduct": {"href": "/mdr/adam/adamig-1-0", "title": "Analysis Data Model Implementation Guide Version 1.0", "type": "Implementation Guide"}, "parentVariableSet": {"href": "/mdr/adam/adamig-1-0/datastructures/BDS/varsets/FlagVariables", "title": "Flag Variables", "type": "Variable Set"}, "self": {"href": "/mdr/adam/adamig-1-0/datastructures/BDS/variables/ITTRFL", "title": "Intent-To-Treat Record-Level Flag", "type": "Analysis Variable"}}, "core": "Cond", "description": "Character indicator of whether the subject was in the intent-to-treat analysis for the specific record.", "label": "Intent-To-Treat Record-Level Flag", "name": "ITTRFL", "ordinal": "118", "simpleDatatype": "Char", "valueList": ["Y"]}, {"_links": {"parentDatastructure": {"href": "/mdr/adam/adamig-1-0/datastructures/BDS", "title": "Basic Data Structure", "type": "Data Structure"}, "parentProduct": {"href": "/mdr/adam/adamig-1-0", "title": "Analysis Data Model Implementation Guide Version 1.0", "type": "Implementation Guide"}, "parentVariableSet": {"href": "/mdr/adam/adamig-1-0/datastructures/BDS/varsets/FlagVariables", "title": "Flag Variables", "type": "Variable Set"}, "self": {"href": "/mdr/adam/adamig-1-0/datastructures/BDS/variables/ITTRFN", "title": "Intent-To-Treat Record-Level Flag (N)", "type": "Analysis Variable"}}, "core": "Perm", "description": "Numeric indicator of whether the subject was in the intent-to-treat analysis for the specific record.", "label": "Intent-To-Treat Record-Level Flag (N)", "name": "ITTRFN", "ordinal": "119", "simpleDatatype": "Num", "valueList": ["1"]}, {"_links": {"parentDatastructure": {"href": "/mdr/adam/adamig-1-0/datastructures/BDS", "title": "Basic Data Structure", "type": "Data Structure"}, "parentProduct": {"href": "/mdr/adam/adamig-1-0", "title": "Analysis Data Model Implementation Guide Version 1.0", "type": "Implementation Guide"}, "parentVariableSet": {"href": "/mdr/adam/adamig-1-0/datastructures/BDS/varsets/FlagVariables", "title": "Flag Variables", "type": "Variable Set"}, "self": {"href": "/mdr/adam/adamig-1-0/datastructures/BDS/variables/ITTPFL", "title": "Intent-To-Treat Parameter-Level Flag", "type": "Analysis Variable"}}, "core": "Cond", "description": "Character indicator of whether the subject was in the intent-to-treat analysis for the specific parameter.", "label": "Intent-To-Treat Parameter-Level Flag", "name": "ITTPFL", "ordinal": "120", "simpleDatatype": "Char", "valueList": ["Y"]}, {"_links": {"parentDatastructure": {"href": "/mdr/adam/adamig-1-0/datastructures/BDS", "title": "Basic Data Structure", "type": "Data Structure"}, "parentProduct": {"href": "/mdr/adam/adamig-1-0", "title": "Analysis Data Model Implementation Guide Version 1.0", "type": "Implementation Guide"}, "parentVariableSet": {"href": "/mdr/adam/adamig-1-0/datastructures/BDS/varsets/FlagVariables", "title": "Flag Variables", "type": "Variable Set"}, "self": {"href": "/mdr/adam/adamig-1-0/datastructures/BDS/variables/ITTPFN", "title": "Intent-To-Treat Param-Level Flag (N)", "type": "Analysis Variable"}}, "core": "Perm", "description": "Numeric indicator of whether the subject was in the intent-to-treat analysis for the specific parameter.", "label": "Intent-To-Treat Param-Level Flag (N)", "name": "ITTPFN", "ordinal": "121", "simpleDatatype": "Num", "valueList": ["1"]}, {"_links": {"parentDatastructure": {"href": "/mdr/adam/adamig-1-0/datastructures/BDS", "title": "Basic Data Structure", "type": "Data Structure"}, "parentProduct": {"href": "/mdr/adam/adamig-1-0", "title": "Analysis Data Model Implementation Guide Version 1.0", "type": "Implementation Guide"}, "parentVariableSet": {"href": "/mdr/adam/adamig-1-0/datastructures/BDS/varsets/FlagVariables", "title": "Flag Variables", "type": "Variable Set"}, "self": {"href": "/mdr/adam/adamig-1-0/datastructures/BDS/variables/SAFRFL", "title": "Safety Analysis Record-Level Flag", "type": "Analysis Variable"}}, "core": "Cond", "description": "Character indicator of whether the subject was in the safety analysis for the specific record.", "label": "Safety Analysis Record-Level Flag", "name": "SAFRFL", "ordinal": "122", "simpleDatatype": "Char", "valueList": ["Y"]}, {"_links": {"parentDatastructure": {"href": "/mdr/adam/adamig-1-0/datastructures/BDS", "title": "Basic Data Structure", "type": "Data Structure"}, "parentProduct": {"href": "/mdr/adam/adamig-1-0", "title": "Analysis Data Model Implementation Guide Version 1.0", "type": "Implementation Guide"}, "parentVariableSet": {"href": "/mdr/adam/adamig-1-0/datastructures/BDS/varsets/FlagVariables", "title": "Flag Variables", "type": "Variable Set"}, "self": {"href": "/mdr/adam/adamig-1-0/datastructures/BDS/variables/SAFRFN", "title": "Safety Analysis Record-Level Flag (N)", "type": "Analysis Variable"}}, "core": "Perm", "description": "Numeric indicator of whether the subject was in the safety analysis for the specific record.", "label": "Safety Analysis Record-Level Flag (N)", "name": "SAFRFN", "ordinal": "123", "simpleDatatype": "Num", "valueList": ["1"]}, {"_links": {"parentDatastructure": {"href": "/mdr/adam/adamig-1-0/datastructures/BDS", "title": "Basic Data Structure", "type": "Data Structure"}, "parentProduct": {"href": "/mdr/adam/adamig-1-0", "title": "Analysis Data Model Implementation Guide Version 1.0", "type": "Implementation Guide"}, "parentVariableSet": {"href": "/mdr/adam/adamig-1-0/datastructures/BDS/varsets/FlagVariables", "title": "Flag Variables", "type": "Variable Set"}, "self": {"href": "/mdr/adam/adamig-1-0/datastructures/BDS/variables/SAFPFL", "title": "Safety Analysis Parameter-Level Flag", "type": "Analysis Variable"}}, "core": "Cond", "description": "Character indicator of whether the subject was in the safety analysis for the specific parameter.", "label": "Safety Analysis Parameter-Level Flag", "name": "SAFPFL", "ordinal": "124", "simpleDatatype": "Char", "valueList": ["Y"]}, {"_links": {"parentDatastructure": {"href": "/mdr/adam/adamig-1-0/datastructures/BDS", "title": "Basic Data Structure", "type": "Data Structure"}, "parentProduct": {"href": "/mdr/adam/adamig-1-0", "title": "Analysis Data Model Implementation Guide Version 1.0", "type": "Implementation Guide"}, "parentVariableSet": {"href": "/mdr/adam/adamig-1-0/datastructures/BDS/varsets/FlagVariables", "title": "Flag Variables", "type": "Variable Set"}, "self": {"href": "/mdr/adam/adamig-1-0/datastructures/BDS/variables/SAFPFN", "title": "Safety Analysis Param-Level Flag (N)", "type": "Analysis Variable"}}, "core": "Perm", "description": "Numeric indicator of whether the subject was in the safety analysis for the specific parameter.", "label": "Safety Analysis Param-Level Flag (N)", "name": "SAFPFN", "ordinal": "125", "simpleDatatype": "Num", "valueList": ["1"]}, {"_links": {"parentDatastructure": {"href": "/mdr/adam/adamig-1-0/datastructures/BDS", "title": "Basic Data Structure", "type": "Data Structure"}, "parentProduct": {"href": "/mdr/adam/adamig-1-0", "title": "Analysis Data Model Implementation Guide Version 1.0", "type": "Implementation Guide"}, "parentVariableSet": {"href": "/mdr/adam/adamig-1-0/datastructures/BDS/varsets/FlagVariables", "title": "Flag Variables", "type": "Variable Set"}, "self": {"href": "/mdr/adam/adamig-1-0/datastructures/BDS/variables/FASRFL", "title": "Full Analysis Set Record-Level Flag", "type": "Analysis Variable"}}, "core": "Cond", "description": "Character indicator of whether the subject was in the full analysis set analysis for the specific record.", "label": "Full Analysis Set Record-Level Flag", "name": "FASRFL", "ordinal": "126", "simpleDatatype": "Char", "valueList": ["Y"]}, {"_links": {"parentDatastructure": {"href": "/mdr/adam/adamig-1-0/datastructures/BDS", "title": "Basic Data Structure", "type": "Data Structure"}, "parentProduct": {"href": "/mdr/adam/adamig-1-0", "title": "Analysis Data Model Implementation Guide Version 1.0", "type": "Implementation Guide"}, "parentVariableSet": {"href": "/mdr/adam/adamig-1-0/datastructures/BDS/varsets/FlagVariables", "title": "Flag Variables", "type": "Variable Set"}, "self": {"href": "/mdr/adam/adamig-1-0/datastructures/BDS/variables/FASRFN", "title": "Full Analysis Set Record-Level Flag (N)", "type": "Analysis Variable"}}, "core": "Perm", "description": "Numeric indicator of whether the subject was in the full analysis set analysis for the specific record.", "label": "Full Analysis Set Record-Level Flag (N)", "name": "FASRFN", "ordinal": "127", "simpleDatatype": "Num", "valueList": ["1"]}, {"_links": {"parentDatastructure": {"href": "/mdr/adam/adamig-1-0/datastructures/BDS", "title": "Basic Data Structure", "type": "Data Structure"}, "parentProduct": {"href": "/mdr/adam/adamig-1-0", "title": "Analysis Data Model Implementation Guide Version 1.0", "type": "Implementation Guide"}, "parentVariableSet": {"href": "/mdr/adam/adamig-1-0/datastructures/BDS/varsets/FlagVariables", "title": "Flag Variables", "type": "Variable Set"}, "self": {"href": "/mdr/adam/adamig-1-0/datastructures/BDS/variables/FASPFL", "title": "Full Analysis Set Parameter-Level Flag", "type": "Analysis Variable"}}, "core": "Cond", "description": "Character indicator of whether the subject was in the full analysis set analysis for the specific parameter.", "label": "Full Analysis Set Parameter-Level Flag", "name": "FASPFL", "ordinal": "128", "simpleDatatype": "Char", "valueList": ["Y"]}, {"_links": {"parentDatastructure": {"href": "/mdr/adam/adamig-1-0/datastructures/BDS", "title": "Basic Data Structure", "type": "Data Structure"}, "parentProduct": {"href": "/mdr/adam/adamig-1-0", "title": "Analysis Data Model Implementation Guide Version 1.0", "type": "Implementation Guide"}, "parentVariableSet": {"href": "/mdr/adam/adamig-1-0/datastructures/BDS/varsets/FlagVariables", "title": "Flag Variables", "type": "Variable Set"}, "self": {"href": "/mdr/adam/adamig-1-0/datastructures/BDS/variables/FASPFN", "title": "Full Analysis Set Param-Level Flag (N)", "type": "Analysis Variable"}}, "core": "Perm", "description": "Numeric indicator of whether the subject was in the full analysis set analysis for the specific parameter.", "label": "Full Analysis Set Param-Level Flag (N)", "name": "FASPFN", "ordinal": "129", "simpleDatatype": "Num", "valueList": ["1"]}, {"_links": {"parentDatastructure": {"href": "/mdr/adam/adamig-1-0/datastructures/BDS", "title": "Basic Data Structure", "type": "Data Structure"}, "parentProduct": {"href": "/mdr/adam/adamig-1-0", "title": "Analysis Data Model Implementation Guide Version 1.0", "type": "Implementation Guide"}, "parentVariableSet": {"href": "/mdr/adam/adamig-1-0/datastructures/BDS/varsets/FlagVariables", "title": "Flag Variables", "type": "Variable Set"}, "self": {"href": "/mdr/adam/adamig-1-0/datastructures/BDS/variables/PPROTRFL", "title": "Per-Protocol Record-Level Flag", "type": "Analysis Variable"}}, "core": "Cond", "description": "Character indicator of whether the subject was in the per-protocol analysis for the specific record.", "label": "Per-Protocol Record-Level Flag", "name": "PPROTRFL", "ordinal": "130", "simpleDatatype": "Char", "valueList": ["Y"]}, {"_links": {"parentDatastructure": {"href": "/mdr/adam/adamig-1-0/datastructures/BDS", "title": "Basic Data Structure", "type": "Data Structure"}, "parentProduct": {"href": "/mdr/adam/adamig-1-0", "title": "Analysis Data Model Implementation Guide Version 1.0", "type": "Implementation Guide"}, "parentVariableSet": {"href": "/mdr/adam/adamig-1-0/datastructures/BDS/varsets/FlagVariables", "title": "Flag Variables", "type": "Variable Set"}, "self": {"href": "/mdr/adam/adamig-1-0/datastructures/BDS/variables/PPROTRFN", "title": "Per-Protocol Record-Level Flag (N)", "type": "Analysis Variable"}}, "core": "Perm", "description": "Numeric indicator of whether the subject was in the per-protocol analysis for the specific record.", "label": "Per-Protocol Record-Level Flag (N)", "name": "PPROTRFN", "ordinal": "131", "simpleDatatype": "Num", "valueList": ["1"]}, {"_links": {"parentDatastructure": {"href": "/mdr/adam/adamig-1-0/datastructures/BDS", "title": "Basic Data Structure", "type": "Data Structure"}, "parentProduct": {"href": "/mdr/adam/adamig-1-0", "title": "Analysis Data Model Implementation Guide Version 1.0", "type": "Implementation Guide"}, "parentVariableSet": {"href": "/mdr/adam/adamig-1-0/datastructures/BDS/varsets/FlagVariables", "title": "Flag Variables", "type": "Variable Set"}, "self": {"href": "/mdr/adam/adamig-1-0/datastructures/BDS/variables/PPROTPFL", "title": "Per-Protocol Parameter-Level Flag", "type": "Analysis Variable"}}, "core": "Cond", "description": "Character indicator of whether the subject was in the per-protocol analysis for the specific parameter.", "label": "Per-Protocol Parameter-Level Flag", "name": "PPROTPFL", "ordinal": "132", "simpleDatatype": "Char", "valueList": ["Y"]}, {"_links": {"parentDatastructure": {"href": "/mdr/adam/adamig-1-0/datastructures/BDS", "title": "Basic Data Structure", "type": "Data Structure"}, "parentProduct": {"href": "/mdr/adam/adamig-1-0", "title": "Analysis Data Model Implementation Guide Version 1.0", "type": "Implementation Guide"}, "parentVariableSet": {"href": "/mdr/adam/adamig-1-0/datastructures/BDS/varsets/FlagVariables", "title": "Flag Variables", "type": "Variable Set"}, "self": {"href": "/mdr/adam/adamig-1-0/datastructures/BDS/variables/PPROTPFN", "title": "Per-Protocol Parameter-Level Flag (N)", "type": "Analysis Variable"}}, "core": "Perm", "description": "Numeric indicator of whether the subject was in the per-protocol analysis for the specific parameter.", "label": "Per-Protocol Parameter-Level Flag (N)", "name": "PPROTPFN", "ordinal": "133", "simpleDatatype": "Num", "valueList": ["1"]}, {"_links": {"parentDatastructure": {"href": "/mdr/adam/adamig-1-0/datastructures/BDS", "title": "Basic Data Structure", "type": "Data Structure"}, "parentProduct": {"href": "/mdr/adam/adamig-1-0", "title": "Analysis Data Model Implementation Guide Version 1.0", "type": "Implementation Guide"}, "parentVariableSet": {"href": "/mdr/adam/adamig-1-0/datastructures/BDS/varsets/FlagVariables", "title": "Flag Variables", "type": "Variable Set"}, "self": {"href": "/mdr/adam/adamig-1-0/datastructures/BDS/variables/COMPRFL", "title": "Completers Record-Level Flag", "type": "Analysis Variable"}}, "core": "Cond", "description": "Character indicator of whether the subject was in the completed subjects analysis for the specific record.", "label": "Completers Record-Level Flag", "name": "COMPRFL", "ordinal": "134", "simpleDatatype": "Char", "valueList": ["Y"]}, {"_links": {"parentDatastructure": {"href": "/mdr/adam/adamig-1-0/datastructures/BDS", "title": "Basic Data Structure", "type": "Data Structure"}, "parentProduct": {"href": "/mdr/adam/adamig-1-0", "title": "Analysis Data Model Implementation Guide Version 1.0", "type": "Implementation Guide"}, "parentVariableSet": {"href": "/mdr/adam/adamig-1-0/datastructures/BDS/varsets/FlagVariables", "title": "Flag Variables", "type": "Variable Set"}, "self": {"href": "/mdr/adam/adamig-1-0/datastructures/BDS/variables/COMPRFN", "title": "Completers Record-Level Flag (N)", "type": "Analysis Variable"}}, "core": "Perm", "description": "Numeric indicator of whether the subject was in the completed subjects analysis for the specific record.", "label": "Completers Record-Level Flag (N)", "name": "COMPRFN", "ordinal": "135", "simpleDatatype": "Num", "valueList": ["1"]}, {"_links": {"parentDatastructure": {"href": "/mdr/adam/adamig-1-0/datastructures/BDS", "title": "Basic Data Structure", "type": "Data Structure"}, "parentProduct": {"href": "/mdr/adam/adamig-1-0", "title": "Analysis Data Model Implementation Guide Version 1.0", "type": "Implementation Guide"}, "parentVariableSet": {"href": "/mdr/adam/adamig-1-0/datastructures/BDS/varsets/FlagVariables", "title": "Flag Variables", "type": "Variable Set"}, "self": {"href": "/mdr/adam/adamig-1-0/datastructures/BDS/variables/COMPPFL", "title": "Completers Parameter-Level Flag", "type": "Analysis Variable"}}, "core": "Cond", "description": "Character indicator of whether the subject was in the completed subjects analysis for the specific parameter.", "label": "Completers Parameter-Level Flag", "name": "COMPPFL", "ordinal": "136", "simpleDatatype": "Char", "valueList": ["Y"]}, {"_links": {"parentDatastructure": {"href": "/mdr/adam/adamig-1-0/datastructures/BDS", "title": "Basic Data Structure", "type": "Data Structure"}, "parentProduct": {"href": "/mdr/adam/adamig-1-0", "title": "Analysis Data Model Implementation Guide Version 1.0", "type": "Implementation Guide"}, "parentVariableSet": {"href": "/mdr/adam/adamig-1-0/datastructures/BDS/varsets/FlagVariables", "title": "Flag Variables", "type": "Variable Set"}, "self": {"href": "/mdr/adam/adamig-1-0/datastructures/BDS/variables/COMPPFN", "title": "Completers Parameter-Level Flag (N)", "type": "Analysis Variable"}}, "core": "Perm", "description": "Numeric indicator of whether the subject was in the completed subjects analysis for the specific parameter.", "label": "Completers Parameter-Level Flag (N)", "name": "COMPPFN", "ordinal": "137", "simpleDatatype": "Num", "valueList": ["1"]}, {"_links": {"parentDatastructure": {"href": "/mdr/adam/adamig-1-0/datastructures/BDS", "title": "Basic Data Structure", "type": "Data Structure"}, "parentProduct": {"href": "/mdr/adam/adamig-1-0", "title": "Analysis Data Model Implementation Guide Version 1.0", "type": "Implementation Guide"}, "parentVariableSet": {"href": "/mdr/adam/adamig-1-0/datastructures/BDS/varsets/FlagVariables", "title": "Flag Variables", "type": "Variable Set"}, "self": {"href": "/mdr/adam/adamig-1-0/datastructures/BDS/variables/CRITyFL", "title": "Criterion y Evaluation Result Flag", "type": "Analysis Variable"}}, "core": "Cond", "description": "Character indicator of whether the criterion defined in CRITy was met. See also CRITy in Section 3.2.4. Required if CRITy exists. Refer to Section 4.7 for additional discussion.", "label": "Criterion y Evaluation Result Flag", "name": "CRITyFL", "ordinal": "138", "simpleDatatype": "Char", "valueList": ["N", "Y"]}, {"_links": {"parentDatastructure": {"href": "/mdr/adam/adamig-1-0/datastructures/BDS", "title": "Basic Data Structure", "type": "Data Structure"}, "parentProduct": {"href": "/mdr/adam/adamig-1-0", "title": "Analysis Data Model Implementation Guide Version 1.0", "type":