{"_links": {"model": {"href": "/mdr/adam/adam-2-1", "title": "Analysis Data Model Version 2.1", "type": "Foundational Model"}, "priorVersion": {"href": "/mdr/adam/adam-occds-1-0", "title": "ADaM Structure for Occurrence Data (OCCDS) Version 1.0", "type": "Implementation Guide"}, "self": {"href": "/mdr/adam/adam-occds-1-1", "title": "ADaM Structure for Occurrence Data (OCCDS) Version 1.1", "type": "Implementation Guide"}}, "dataStructures": [{"_links": {"parentProduct": {"href": "/mdr/adam/adam-occds-1-1", "title": "ADaM Structure for Occurrence Data (OCCDS) Version 1.1", "type": "Implementation Guide"}, "priorVersion": {"href": "/mdr/adam/adam-occds-1-0/datastructures/OCCDS", "title": "Occurrence Data Structure", "type": "Data Structure"}, "self": {"href": "/mdr/adam/adam-occds-1-1/datastructures/OCCDS", "title": "Occurrence Data Structure", "type": "Data Structure"}}, "analysisVariableSets": [{"_links": {"parentDatastructure": {"href": "/mdr/adam/adam-occds-1-1/datastructures/OCCDS", "title": "Occurrence Data Structure", "type": "Data Structure"}, "parentProduct": {"href": "/mdr/adam/adam-occds-1-1", "title": "ADaM Structure for Occurrence Data (OCCDS) Version 1.1", "type": "Implementation Guide"}, "priorVersion": {"href": "/mdr/adam/adam-occds-1-0/datastructures/OCCDS/varsets/Identifier", "title": "OCCDS Identifier Variables", "type": "Variable Set"}, "self": {"href": "/mdr/adam/adam-occds-1-1/datastructures/OCCDS/varsets/Identifier", "title": "OCCDS Identifier Variables", "type": "Variable Set"}}, "analysisVariables": [{"_links": {"parentDatastructure": {"href": "/mdr/adam/adam-occds-1-1/datastructures/OCCDS", "title": "Occurrence Data Structure", "type": "Data Structure"}, "parentProduct": {"href": "/mdr/adam/adam-occds-1-1", "title": "ADaM Structure for Occurrence Data (OCCDS) Version 1.1", "type": "Implementation Guide"}, "parentVariableSet": {"href": "/mdr/adam/adam-occds-1-1/datastructures/OCCDS/varsets/Identifier", "title": "OCCDS Identifier Variables", "type": "Variable Set"}, "priorVersion": {"href": "/mdr/adam/adam-occds-1-0/datastructures/OCCDS/variables/STUDYID", "title": "Study Identifier", "type": "Analysis Variable"}, "self": {"href": "/mdr/adam/adam-occds-1-1/datastructures/OCCDS/variables/STUDYID", "title": "Study Identifier", "type": "Analysis Variable"}}, "core": "Req", "description": "XX.STUDYID", "label": "Study Identifier", "name": "STUDYID", "ordinal": "1", "simpleDatatype": "Char"}, {"_links": {"parentDatastructure": {"href": "/mdr/adam/adam-occds-1-1/datastructures/OCCDS", "title": "Occurrence Data Structure", "type": "Data Structure"}, "parentProduct": {"href": "/mdr/adam/adam-occds-1-1", "title": "ADaM Structure for Occurrence Data (OCCDS) Version 1.1", "type": "Implementation Guide"}, "parentVariableSet": {"href": "/mdr/adam/adam-occds-1-1/datastructures/OCCDS/varsets/Identifier", "title": "OCCDS Identifier Variables", "type": "Variable Set"}, "priorVersion": {"href": "/mdr/adam/adam-occds-1-0/datastructures/OCCDS/variables/USUBJID", "title": "Unique Subject Identifier", "type": "Analysis Variable"}, "self": {"href": "/mdr/adam/adam-occds-1-1/datastructures/OCCDS/variables/USUBJID", "title": "Unique Subject Identifier", "type": "Analysis Variable"}}, "core": "Req", "description": "XX.USUBJID", "label": "Unique Subject Identifier", "name": "USUBJID", "ordinal": "2", "simpleDatatype": "Char"}, {"_links": {"parentDatastructure": {"href": "/mdr/adam/adam-occds-1-1/datastructures/OCCDS", "title": "Occurrence Data Structure", "type": "Data Structure"}, "parentProduct": {"href": "/mdr/adam/adam-occds-1-1", "title": "ADaM Structure for Occurrence Data (OCCDS) Version 1.1", "type": "Implementation Guide"}, "parentVariableSet": {"href": "/mdr/adam/adam-occds-1-1/datastructures/OCCDS/varsets/Identifier", "title": "OCCDS Identifier Variables", "type": "Variable Set"}, "priorVersion": {"href": "/mdr/adam/adam-occds-1-0/datastructures/OCCDS/variables/USUBJID", "title": "Unique Subject Identifier", "type": "Analysis Variable"}, "self": {"href": "/mdr/adam/adam-occds-1-1/datastructures/OCCDS/variables/SUBJID", "title": "Subject Identifier for the Study", "type": "Analysis Variable"}}, "core": "Perm", "description": "ADSL.SUBJID", "label": "Subject Identifier for the Study", "name": "SUBJID", "ordinal": "3", "simpleDatatype": "Char"}, {"_links": {"parentDatastructure": {"href": "/mdr/adam/adam-occds-1-1/datastructures/OCCDS", "title": "Occurrence Data Structure", "type": "Data Structure"}, "parentProduct": {"href": "/mdr/adam/adam-occds-1-1", "title": "ADaM Structure for Occurrence Data (OCCDS) Version 1.1", "type": "Implementation Guide"}, "parentVariableSet": {"href": "/mdr/adam/adam-occds-1-1/datastructures/OCCDS/varsets/Identifier", "title": "OCCDS Identifier Variables", "type": "Variable Set"}, "priorVersion": {"href": "/mdr/adam/adam-occds-1-0/datastructures/OCCDS/variables/SITEID", "title": "Study Site Identifier", "type": "Analysis Variable"}, "self": {"href": "/mdr/adam/adam-occds-1-1/datastructures/OCCDS/variables/SITEID", "title": "Study Site Identifier", "type": "Analysis Variable"}}, "core": "Perm", "description": "ADSL.SITEID", "label": "Study Site Identifier", "name": "SITEID", "ordinal": "4", "simpleDatatype": "Char"}], "label": "OCCDS Identifier Variables", "name": "Identifier", "ordinal": "1"}, {"_links": {"parentDatastructure": {"href": "/mdr/adam/adam-occds-1-1/datastructures/OCCDS", "title": "Occurrence Data Structure", "type": "Data Structure"}, "parentProduct": {"href": "/mdr/adam/adam-occds-1-1", "title": "ADaM Structure for Occurrence Data (OCCDS) Version 1.1", "type": "Implementation Guide"}, "self": {"href": "/mdr/adam/adam-occds-1-1/datastructures/OCCDS/varsets/RowIdentifier", "title": "OCCDS Row Identifier Variables", "type": "Variable Set"}}, "analysisVariables": [{"_links": {"parentDatastructure": {"href": "/mdr/adam/adam-occds-1-1/datastructures/OCCDS", "title": "Occurrence Data Structure", "type": "Data Structure"}, "parentProduct": {"href": "/mdr/adam/adam-occds-1-1", "title": "ADaM Structure for Occurrence Data (OCCDS) Version 1.1", "type": "Implementation Guide"}, "parentVariableSet": {"href": "/mdr/adam/adam-occds-1-1/datastructures/OCCDS/varsets/RowIdentifier", "title": "OCCDS Row Identifier Variables", "type": "Variable Set"}, "priorVersion": {"href": "/mdr/adam/adam-occds-1-0/datastructures/OCCDS/variables/--SEQ", "title": "Sequence Number", "type": "Analysis Variable"}, "self": {"href": "/mdr/adam/adam-occds-1-1/datastructures/OCCDS/variables/--SEQ", "title": "Sequence Number", "type": "Analysis Variable"}}, "core": "Cond", "description": "XX.--SEQ \\n Identifies the sequence number in SDTM domain XX that is the source for this row. This variable would be copied unchanged from the SDTM domain XX. Required for traceability back to SDTM when rows in the dataset are created from a single SDTM domain. This may be missing for derived rows. \\n For SubClass ADVERSE EVENT, use AESEQ, copied from SDTM AE.AESEQ.", "label": "Sequence Number", "name": "--SEQ", "ordinal": "1", "simpleDatatype": "Num"}, {"_links": {"parentDatastructure": {"href": "/mdr/adam/adam-occds-1-1/datastructures/OCCDS", "title": "Occurrence Data Structure", "type": "Data Structure"}, "parentProduct": {"href": "/mdr/adam/adam-occds-1-1", "title": "ADaM Structure for Occurrence Data (OCCDS) Version 1.1", "type": "Implementation Guide"}, "parentVariableSet": {"href": "/mdr/adam/adam-occds-1-1/datastructures/OCCDS/varsets/RowIdentifier", "title": "OCCDS Row Identifier Variables", "type": "Variable Set"}, "self": {"href": "/mdr/adam/adam-occds-1-1/datastructures/OCCDS/variables/SRCDOM", "title": "Source Data", "type": "Analysis Variable"}}, "core": "Perm", "description": "Identifies the name of the domain or dataset that is the source for this row. If the source data is a supplemental qualifier in SDTM, this variable will contain the value of RDOMAIN in SUPP-- or SUPPQUAL. Used when rows in the OCCDS dataset are from multiple SDTM domains or from one or more ADaM datasets. Not to be used in conjunction with --SEQ. This may be missing for derived rows. \\n For SubClass ADVERSE EVENT, AESEQ is used rather than SRCDOM and SRCSEQ.", "label": "Source Data", "name": "SRCDOM", "ordinal": "2", "simpleDatatype": "Char"}, {"_links": {"parentDatastructure": {"href": "/mdr/adam/adam-occds-1-1/datastructures/OCCDS", "title": "Occurrence Data Structure", "type": "Data Structure"}, "parentProduct": {"href": "/mdr/adam/adam-occds-1-1", "title": "ADaM Structure for Occurrence Data (OCCDS) Version 1.1", "type": "Implementation Guide"}, "parentVariableSet": {"href": "/mdr/adam/adam-occds-1-1/datastructures/OCCDS/varsets/RowIdentifier", "title": "OCCDS Row Identifier Variables", "type": "Variable Set"}, "self": {"href": "/mdr/adam/adam-occds-1-1/datastructures/OCCDS/variables/SRCSEQ", "title": "Source Sequence Number", "type": "Analysis Variable"}}, "core": "Perm", "description": "Identifies the sequence number that is the source for this row. If SRCDOM is a SUPPQUAL, then this variable will contain the sequence number of the relevant related domain record. Used when rows in the OCCDS dataset are from multiple SDTM domains or from one or more ADaM datasets. Not to be used in conjunction with --SEQ. This may be missing for derived rows. \\n For SubClass ADVERSE EVENT, AESEQ is used rather than SRCDOM and SRCSEQ.", "label": "Source Sequence Number", "name": "SRCSEQ", "ordinal": "3", "simpleDatatype": "Num"}, {"_links": {"parentDatastructure": {"href": "/mdr/adam/adam-occds-1-1/datastructures/OCCDS", "title": "Occurrence Data Structure", "type": "Data Structure"}, "parentProduct": {"href": "/mdr/adam/adam-occds-1-1", "title": "ADaM Structure for Occurrence Data (OCCDS) Version 1.1", "type": "Implementation Guide"}, "parentVariableSet": {"href": "/mdr/adam/adam-occds-1-1/datastructures/OCCDS/varsets/RowIdentifier", "title": "OCCDS Row Identifier Variables", "type": "Variable Set"}, "self": {"href": "/mdr/adam/adam-occds-1-1/datastructures/OCCDS/variables/ASEQ", "title": "Analysis Sequence Number", "type": "Analysis Variable"}}, "core": "Perm", "description": "Sequence number given to ensure uniqueness of subject records within an ADaM dataset. \\n ASEQ is useful for traceability when the OCCDS dataset is used as input to another ADaM dataset and the --SEQ variable is not included or unique. ASEQ is described in more detail in ADaMIG v1.2, Section 3.3.1, Identifier Variables for BDS Datasets.", "label": "Analysis Sequence Number", "name": "ASEQ", "ordinal": "4", "simpleDatatype": "Num"}], "label": "OCCDS Row Identifier Variables", "name": "Row Identifier", "ordinal": "2"}, {"_links": {"parentDatastructure": {"href": "/mdr/adam/adam-occds-1-1/datastructures/OCCDS", "title": "Occurrence Data Structure", "type": "Data Structure"}, "parentProduct": {"href": "/mdr/adam/adam-occds-1-1", "title": "ADaM Structure for Occurrence Data (OCCDS) Version 1.1", "type": "Implementation Guide"}, "priorVersion": {"href": "/mdr/adam/adam-occds-1-0/datastructures/OCCDS/varsets/MedDRADictionaryCoding", "title": "MedDRA Dictionary Coding Variables", "type": "Variable Set"}, "self": {"href": "/mdr/adam/adam-occds-1-1/datastructures/OCCDS/varsets/MedDRADictionaryCoding", "title": "OCCDS MedDRA Dictionary Coding Variables", "type": "Variable Set"}}, "analysisVariables": [{"_links": {"parentDatastructure": {"href": "/mdr/adam/adam-occds-1-1/datastructures/OCCDS", "title": "Occurrence Data Structure", "type": "Data Structure"}, "parentProduct": {"href": "/mdr/adam/adam-occds-1-1", "title": "ADaM Structure for Occurrence Data (OCCDS) Version 1.1", "type": "Implementation Guide"}, "parentVariableSet": {"href": "/mdr/adam/adam-occds-1-1/datastructures/OCCDS/varsets/MedDRADictionaryCoding", "title": "OCCDS MedDRA Dictionary Coding Variables", "type": "Variable Set"}, "priorVersion": {"href": "/mdr/adam/adam-occds-1-0/datastructures/OCCDS/variables/--TERM", "title": "Reported Term", "type": "Analysis Variable"}, "self": {"href": "/mdr/adam/adam-occds-1-1/datastructures/OCCDS/variables/--TERM", "title": "Reported Term", "type": "Analysis Variable"}}, "core": "Req", "description": "Copied from XX.--TERM \\n This variable label differs depending on the SDTM domain. See SDTM v1.7 Section 2.2.2, The Events Observation Class, and SDTMIG v3.3 Section 6.2, Models for Events Domains, for details.", "label": "Reported Term", "name": "--TERM", "ordinal": "1", "simpleDatatype": "Char"}, {"_links": {"parentDatastructure": {"href": "/mdr/adam/adam-occds-1-1/datastructures/OCCDS", "title": "Occurrence Data Structure", "type": "Data Structure"}, "parentProduct": {"href": "/mdr/adam/adam-occds-1-1", "title": "ADaM Structure for Occurrence Data (OCCDS) Version 1.1", "type": "Implementation Guide"}, "parentVariableSet": {"href": "/mdr/adam/adam-occds-1-1/datastructures/OCCDS/varsets/MedDRADictionaryCoding", "title": "OCCDS MedDRA Dictionary Coding Variables", "type": "Variable Set"}, "priorVersion": {"href": "/mdr/adam/adam-occds-1-0/datastructures/OCCDS/variables/--DECOD", "title": "Dictionary-Derived Term", "type": "Analysis Variable"}, "self": {"href": "/mdr/adam/adam-occds-1-1/datastructures/OCCDS/variables/--DECOD", "title": "Dictionary-Derived Term", "type": "Analysis Variable"}}, "core": "Cond", "describedValueDomain": "MedDRA", "description": "Copied from XX.--DECOD \\n This variable is typically one of the primary variables used in an analysis and would be brought in from the SDTM domain. Equivalent to the MedDRA PT. All other SDTM domain variables and supplemental qualifiers needed for analysis or traceability should also be included. Include the dictionary version in the metadata. \\n Conditional on whether coded and used for analysis. Required for adverse event data.", "label": "Dictionary-Derived Term", "name": "--DECOD", "ordinal": "2", "simpleDatatype": "Char"}, {"_links": {"parentDatastructure": {"href": "/mdr/adam/adam-occds-1-1/datastructures/OCCDS", "title": "Occurrence Data Structure", "type": "Data Structure"}, "parentProduct": {"href": "/mdr/adam/adam-occds-1-1", "title": "ADaM Structure for Occurrence Data (OCCDS) Version 1.1", "type": "Implementation Guide"}, "parentVariableSet": {"href": "/mdr/adam/adam-occds-1-1/datastructures/OCCDS/varsets/MedDRADictionaryCoding", "title": "OCCDS MedDRA Dictionary Coding Variables", "type": "Variable Set"}, "priorVersion": {"href": "/mdr/adam/adam-occds-1-0/datastructures/OCCDS/variables/--BODSYS", "title": "Body System or Organ Class", "type": "Analysis Variable"}, "self": {"href": "/mdr/adam/adam-occds-1-1/datastructures/OCCDS/variables/--BODSYS", "title": "Body System or Organ Class", "type": "Analysis Variable"}}, "core": "Cond", "describedValueDomain": "MedDRA", "description": "Copied from XX.--BODSYS \\n Include the dictionary version in the metadata. \\n Conditional on whether coded and used for analysis. Required for adverse event data.", "label": "Body System or Organ Class", "name": "--BODSYS", "ordinal": "3", "simpleDatatype": "Char"}, {"_links": {"parentDatastructure": {"href": "/mdr/adam/adam-occds-1-1/datastructures/OCCDS", "title": "Occurrence Data Structure", "type": "Data Structure"}, "parentProduct": {"href": "/mdr/adam/adam-occds-1-1", "title": "ADaM Structure for Occurrence Data (OCCDS) Version 1.1", "type": "Implementation Guide"}, "parentVariableSet": {"href": "/mdr/adam/adam-occds-1-1/datastructures/OCCDS/varsets/MedDRADictionaryCoding", "title": "OCCDS MedDRA Dictionary Coding Variables", "type": "Variable Set"}, "priorVersion": {"href": "/mdr/adam/adam-occds-1-0/datastructures/OCCDS/variables/--BDSYCD", "title": "Body System or Organ Class Code", "type": "Analysis Variable"}, "self": {"href": "/mdr/adam/adam-occds-1-1/datastructures/OCCDS/variables/--BDSYCD", "title": "Body System or Organ Class Code", "type": "Analysis Variable"}}, "core": "Perm", "describedValueDomain": "MedDRA", "description": "Copied from XX.--BDSYCD or the supplemental qualifier \\n This would be copied from the SDTM domain XX or supplemental qualifier dataset. Include the dictionary version in the metadata.", "label": "Body System or Organ Class Code", "name": "--BDSYCD", "ordinal": "4", "simpleDatatype": "Num"}, {"_links": {"parentDatastructure": {"href": "/mdr/adam/adam-occds-1-1/datastructures/OCCDS", "title": "Occurrence Data Structure", "type": "Data Structure"}, "parentProduct": {"href": "/mdr/adam/adam-occds-1-1", "title": "ADaM Structure for Occurrence Data (OCCDS) Version 1.1", "type": "Implementation Guide"}, "parentVariableSet": {"href": "/mdr/adam/adam-occds-1-1/datastructures/OCCDS/varsets/MedDRADictionaryCoding", "title": "OCCDS MedDRA Dictionary Coding Variables", "type": "Variable Set"}, "priorVersion": {"href": "/mdr/adam/adam-occds-1-0/datastructures/OCCDS/variables/--LLT", "title": "Lowest Level Term", "type": "Analysis Variable"}, "self": {"href": "/mdr/adam/adam-occds-1-1/datastructures/OCCDS/variables/--LLT", "title": "Lowest Level Term", "type": "Analysis Variable"}}, "core": "Cond", "describedValueDomain": "MedDRA", "description": "Copied from XX.-- LLT or the supplemental qualifier \\n Include the dictionary version in the metadata. \\n Conditional on whether coded and used for analysis.", "label": "Lowest Level Term", "name": "--LLT", "ordinal": "5", "simpleDatatype": "Char"}, {"_links": {"parentDatastructure": {"href": "/mdr/adam/adam-occds-1-1/datastructures/OCCDS", "title": "Occurrence Data Structure", "type": "Data Structure"}, "parentProduct": {"href": "/mdr/adam/adam-occds-1-1", "title": "ADaM Structure for Occurrence Data (OCCDS) Version 1.1", "type": "Implementation Guide"}, "parentVariableSet": {"href": "/mdr/adam/adam-occds-1-1/datastructures/OCCDS/varsets/MedDRADictionaryCoding", "title": "OCCDS MedDRA Dictionary Coding Variables", "type": "Variable Set"}, "priorVersion": {"href": "/mdr/adam/adam-occds-1-0/datastructures/OCCDS/variables/--LLTCD", "title": "Lowest Level Term Code", "type": "Analysis Variable"}, "self": {"href": "/mdr/adam/adam-occds-1-1/datastructures/OCCDS/variables/--LLTCD", "title": "Lowest Level Term Code", "type": "Analysis Variable"}}, "core": "Perm", "describedValueDomain": "MedDRA", "description": "Copied from XX.--LLTCD or the supplemental qualifier \\n Include the dictionary version in the metadata.", "label": "Lowest Level Term Code", "name": "--LLTCD", "ordinal": "6", "simpleDatatype": "Num"}, {"_links": {"parentDatastructure": {"href": "/mdr/adam/adam-occds-1-1/datastructures/OCCDS", "title": "Occurrence Data Structure", "type": "Data Structure"}, "parentProduct": {"href": "/mdr/adam/adam-occds-1-1", "title": "ADaM Structure for Occurrence Data (OCCDS) Version 1.1", "type": "Implementation Guide"}, "parentVariableSet": {"href": "/mdr/adam/adam-occds-1-1/datastructures/OCCDS/varsets/MedDRADictionaryCoding", "title": "OCCDS MedDRA Dictionary Coding Variables", "type": "Variable Set"}, "priorVersion": {"href": "/mdr/adam/adam-occds-1-0/datastructures/OCCDS/variables/--PTCD", "title": "Preferred Term Code", "type": "Analysis Variable"}, "self": {"href": "/mdr/adam/adam-occds-1-1/datastructures/OCCDS/variables/--PTCD", "title": "Preferred Term Code", "type": "Analysis Variable"}}, "core": "Perm", "describedValueDomain": "MedDRA", "description": "Copied from XX.--PTCD or the supplemental qualifier \\n Include the dictionary version in the metadata.", "label": "Preferred Term Code", "name": "--PTCD", "ordinal": "7", "simpleDatatype": "Num"}, {"_links": {"parentDatastructure": {"href": "/mdr/adam/adam-occds-1-1/datastructures/OCCDS", "title": "Occurrence Data Structure", "type": "Data Structure"}, "parentProduct": {"href": "/mdr/adam/adam-occds-1-1", "title": "ADaM Structure for Occurrence Data (OCCDS) Version 1.1", "type": "Implementation Guide"}, "parentVariableSet": {"href": "/mdr/adam/adam-occds-1-1/datastructures/OCCDS/varsets/MedDRADictionaryCoding", "title": "OCCDS MedDRA Dictionary Coding Variables", "type": "Variable Set"}, "priorVersion": {"href": "/mdr/adam/adam-occds-1-0/datastructures/OCCDS/variables/--HLT", "title": "High Level Term", "type": "Analysis Variable"}, "self": {"href": "/mdr/adam/adam-occds-1-1/datastructures/OCCDS/variables/--HLT", "title": "High Level Term", "type": "Analysis Variable"}}, "core": "Cond", "describedValueDomain": "MedDRA", "description": "Copied from XX.--HLT or the supplemental qualifier \\n Include the dictionary version in the metadata. \\n Conditional on whether used for analysis.", "label": "High Level Term", "name": "--HLT", "ordinal": "8", "simpleDatatype": "Char"}, {"_links": {"parentDatastructure": {"href": "/mdr/adam/adam-occds-1-1/datastructures/OCCDS", "title": "Occurrence Data Structure", "type": "Data Structure"}, "parentProduct": {"href": "/mdr/adam/adam-occds-1-1", "title": "ADaM Structure for Occurrence Data (OCCDS) Version 1.1", "type": "Implementation Guide"}, "parentVariableSet": {"href": "/mdr/adam/adam-occds-1-1/datastructures/OCCDS/varsets/MedDRADictionaryCoding", "title": "OCCDS MedDRA Dictionary Coding Variables", "type": "Variable Set"}, "priorVersion": {"href": "/mdr/adam/adam-occds-1-0/datastructures/OCCDS/variables/--HLTCD", "title": "High Level Term Code", "type": "Analysis Variable"}, "self": {"href": "/mdr/adam/adam-occds-1-1/datastructures/OCCDS/variables/--HLTCD", "title": "High Level Term Code", "type": "Analysis Variable"}}, "core": "Perm", "describedValueDomain": "MedDRA", "description": "Copied from XX.--HLTCD or the supplemental qualifier \\n Include the dictionary version in the metadata.", "label": "High Level Term Code", "name": "--HLTCD", "ordinal": "9", "simpleDatatype": "Num"}, {"_links": {"parentDatastructure": {"href": "/mdr/adam/adam-occds-1-1/datastructures/OCCDS", "title": "Occurrence Data Structure", "type": "Data Structure"}, "parentProduct": {"href": "/mdr/adam/adam-occds-1-1", "title": "ADaM Structure for Occurrence Data (OCCDS) Version 1.1", "type": "Implementation Guide"}, "parentVariableSet": {"href": "/mdr/adam/adam-occds-1-1/datastructures/OCCDS/varsets/MedDRADictionaryCoding", "title": "OCCDS MedDRA Dictionary Coding Variables", "type": "Variable Set"}, "priorVersion": {"href": "/mdr/adam/adam-occds-1-0/datastructures/OCCDS/variables/--HLGT", "title": "High Level Group Term", "type": "Analysis Variable"}, "self": {"href": "/mdr/adam/adam-occds-1-1/datastructures/OCCDS/variables/--HLGT", "title": "High Level Group Term", "type": "Analysis Variable"}}, "core": "Cond", "describedValueDomain": "MedDRA", "description": "Copied from XX.--HLGT or the supplemental qualifier \\n Include the dictionary version in the metadata. \\n Conditional on whether used for analysis.", "label": "High Level Group Term", "name": "--HLGT", "ordinal": "10", "simpleDatatype": "Char"}, {"_links": {"parentDatastructure": {"href": "/mdr/adam/adam-occds-1-1/datastructures/OCCDS", "title": "Occurrence Data Structure", "type": "Data Structure"}, "parentProduct": {"href": "/mdr/adam/adam-occds-1-1", "title": "ADaM Structure for Occurrence Data (OCCDS) Version 1.1", "type": "Implementation Guide"}, "parentVariableSet": {"href": "/mdr/adam/adam-occds-1-1/datastructures/OCCDS/varsets/MedDRADictionaryCoding", "title": "OCCDS MedDRA Dictionary Coding Variables", "type": "Variable Set"}, "priorVersion": {"href": "/mdr/adam/adam-occds-1-0/datastructures/OCCDS/variables/--HLGTCD", "title": "High Level Group Term Code", "type": "Analysis Variable"}, "self": {"href": "/mdr/adam/adam-occds-1-1/datastructures/OCCDS/variables/--HLGTCD", "title": "High Level Group Term Code", "type": "Analysis Variable"}}, "core": "Perm", "describedValueDomain": "MedDRA", "description": "Copied from XX.--HLGTCD or the supplemental qualifier \\n Include the dictionary version in the metadata.", "label": "High Level Group Term Code", "name": "--HLGTCD", "ordinal": "11", "simpleDatatype": "Num"}, {"_links": {"parentDatastructure": {"href": "/mdr/adam/adam-occds-1-1/datastructures/OCCDS", "title": "Occurrence Data Structure", "type": "Data Structure"}, "parentProduct": {"href": "/mdr/adam/adam-occds-1-1", "title": "ADaM Structure for Occurrence Data (OCCDS) Version 1.1", "type": "Implementation Guide"}, "parentVariableSet": {"href": "/mdr/adam/adam-occds-1-1/datastructures/OCCDS/varsets/MedDRADictionaryCoding", "title": "OCCDS MedDRA Dictionary Coding Variables", "type": "Variable Set"}, "priorVersion": {"href": "/mdr/adam/adam-occds-1-0/datastructures/OCCDS/variables/--SOC", "title": "Primary System Organ Class", "type": "Analysis Variable"}, "self": {"href": "/mdr/adam/adam-occds-1-1/datastructures/OCCDS/variables/--SOC", "title": "Primary System Organ Class", "type": "Analysis Variable"}}, "core": "Cond", "describedValueDomain": "MedDRA", "description": "Copied from XX.--SOC or the supplemental qualifier \\n Include the dictionary version in the metadata. \\n Conditional on whether a secondary SOC was used for analysis.", "label": "Primary System Organ Class", "name": "--SOC", "ordinal": "12", "simpleDatatype": "Char"}, {"_links": {"parentDatastructure": {"href": "/mdr/adam/adam-occds-1-1/datastructures/OCCDS", "title": "Occurrence Data Structure", "type": "Data Structure"}, "parentProduct": {"href": "/mdr/adam/adam-occds-1-1", "title": "ADaM Structure for Occurrence Data (OCCDS) Version 1.1", "type": "Implementation Guide"}, "parentVariableSet": {"href": "/mdr/adam/adam-occds-1-1/datastructures/OCCDS/varsets/MedDRADictionaryCoding", "title": "OCCDS MedDRA Dictionary Coding Variables", "type": "Variable Set"}, "priorVersion": {"href": "/mdr/adam/adam-occds-1-0/datastructures/OCCDS/variables/--SOCCD", "title": "Primary System Organ Class Code", "type": "Analysis Variable"}, "self": {"href": "/mdr/adam/adam-occds-1-1/datastructures/OCCDS/variables/--SOCCD", "title": "Primary System Organ Class Code", "type": "Analysis Variable"}}, "core": "Perm", "describedValueDomain": "MedDRA", "description": "Copied from XX.--SOCCD or the supplemental qualifier \\n Include the dictionary version in the metadata.", "label": "Primary System Organ Class Code", "name": "--SOCCD", "ordinal": "13", "simpleDatatype": "Num"}], "label": "OCCDS MedDRA Dictionary Coding Variables", "name": "MedDRA Dictionary Coding", "ordinal": "3"}, {"_links": {"parentDatastructure": {"href": "/mdr/adam/adam-occds-1-1/datastructures/OCCDS", "title": "Occurrence Data Structure", "type": "Data Structure"}, "parentProduct": {"href": "/mdr/adam/adam-occds-1-1", "title": "ADaM Structure for Occurrence Data (OCCDS) Version 1.1", "type": "Implementation Guide"}, "priorVersion": {"href": "/mdr/adam/adam-occds-1-0/datastructures/OCCDS/varsets/WHODrugDictionaryCoding", "title": "WHO Drug Dictionary Coding Variables", "type": "Variable Set"}, "self": {"href": "/mdr/adam/adam-occds-1-1/datastructures/OCCDS/varsets/WHODrugDictionaryCoding", "title": "OCCDS WHO Drug Dictionary Coding Variables", "type": "Variable Set"}}, "analysisVariables": [{"_links": {"parentDatastructure": {"href": "/mdr/adam/adam-occds-1-1/datastructures/OCCDS", "title": "Occurrence Data Structure", "type": "Data Structure"}, "parentProduct": {"href": "/mdr/adam/adam-occds-1-1", "title": "ADaM Structure for Occurrence Data (OCCDS) Version 1.1", "type": "Implementation Guide"}, "parentVariableSet": {"href": "/mdr/adam/adam-occds-1-1/datastructures/OCCDS/varsets/WHODrugDictionaryCoding", "title": "OCCDS WHO Drug Dictionary Coding Variables", "type": "Variable Set"}, "priorVersion": {"href": "/mdr/adam/adam-occds-1-0/datastructures/OCCDS/variables/CMTRT", "title": "Reported Name of Drug, Med, or Therapy ", "type": "Analysis Variable"}, "self": {"href": "/mdr/adam/adam-occds-1-1/datastructures/OCCDS/variables/CMTRT", "title": "Reported Name of Drug, Med, or Therapy", "type": "Analysis Variable"}}, "core": "Req", "description": "CM.CMTRT", "label": "Reported Name of Drug, Med, or Therapy", "name": "CMTRT", "ordinal": "1", "simpleDatatype": "Char"}, {"_links": {"parentDatastructure": {"href": "/mdr/adam/adam-occds-1-1/datastructures/OCCDS", "title": "Occurrence Data Structure", "type": "Data Structure"}, "parentProduct": {"href": "/mdr/adam/adam-occds-1-1", "title": "ADaM Structure for Occurrence Data (OCCDS) Version 1.1", "type": "Implementation Guide"}, "parentVariableSet": {"href": "/mdr/adam/adam-occds-1-1/datastructures/OCCDS/varsets/WHODrugDictionaryCoding", "title": "OCCDS WHO Drug Dictionary Coding Variables", "type": "Variable Set"}, "priorVersion": {"href": "/mdr/adam/adam-occds-1-0/datastructures/OCCDS/variables/CMDECOD", "title": "Standardized Medication Name", "type": "Analysis Variable"}, "self": {"href": "/mdr/adam/adam-occds-1-1/datastructures/OCCDS/variables/CMDECOD", "title": "Standardized Medication Name", "type": "Analysis Variable"}}, "core": "Cond", "describedValueDomain": "WHO Drug", "description": "CM.CMDECOD \\n This is typically one of the primary variables used in CM analysis and would be copied from the SDTM CM domain. Include the dictionary version in the variable metadata. \\n Conditional on whether coded and used for analysis.", "label": "Standardized Medication Name", "name": "CMDECOD", "ordinal": "2", "simpleDatatype": "Char"}, {"_links": {"parentDatastructure": {"href": "/mdr/adam/adam-occds-1-1/datastructures/OCCDS", "title": "Occurrence Data Structure", "type": "Data Structure"}, "parentProduct": {"href": "/mdr/adam/adam-occds-1-1", "title": "ADaM Structure for Occurrence Data (OCCDS) Version 1.1", "type": "Implementation Guide"}, "parentVariableSet": {"href": "/mdr/adam/adam-occds-1-1/datastructures/OCCDS/varsets/WHODrugDictionaryCoding", "title": "OCCDS WHO Drug Dictionary Coding Variables", "type": "Variable Set"}, "priorVersion": {"href": "/mdr/adam/adam-occds-1-0/datastructures/OCCDS/variables/CMCLAS", "title": "Medication Class", "type": "Analysis Variable"}, "self": {"href": "/mdr/adam/adam-occds-1-1/datastructures/OCCDS/variables/CMCLAS", "title": "Medication Class", "type": "Analysis Variable"}}, "core": "Perm", "description": "CM.CMCLAS \\n Include the dictionary version in the metadata.", "label": "Medication Class", "name": "CMCLAS", "ordinal": "3", "simpleDatatype": "Char"}, {"_links": {"parentDatastructure": {"href": "/mdr/adam/adam-occds-1-1/datastructures/OCCDS", "title": "Occurrence Data Structure", "type": "Data Structure"}, "parentProduct": {"href": "/mdr/adam/adam-occds-1-1", "title": "ADaM Structure for Occurrence Data (OCCDS) Version 1.1", "type": "Implementation Guide"}, "parentVariableSet": {"href": "/mdr/adam/adam-occds-1-1/datastructures/OCCDS/varsets/WHODrugDictionaryCoding", "title": "OCCDS WHO Drug Dictionary Coding Variables", "type": "Variable Set"}, "priorVersion": {"href": "/mdr/adam/adam-occds-1-0/datastructures/OCCDS/variables/CMCLASCD", "title": "Medication Class Code", "type": "Analysis Variable"}, "self": {"href": "/mdr/adam/adam-occds-1-1/datastructures/OCCDS/variables/CMCLASCD", "title": "Medication Class Code", "type": "Analysis Variable"}}, "core": "Perm", "description": "CM.CMCLASCD \\n Include the dictionary version in the metadata.", "label": "Medication Class Code", "name": "CMCLASCD", "ordinal": "4", "simpleDatatype": "Char"}, {"_links": {"parentDatastructure": {"href": "/mdr/adam/adam-occds-1-1/datastructures/OCCDS", "title": "Occurrence Data Structure", "type": "Data Structure"}, "parentProduct": {"href": "/mdr/adam/adam-occds-1-1", "title": "ADaM Structure for Occurrence Data (OCCDS) Version 1.1", "type": "Implementation Guide"}, "parentVariableSet": {"href": "/mdr/adam/adam-occds-1-1/datastructures/OCCDS/varsets/WHODrugDictionaryCoding", "title": "OCCDS WHO Drug Dictionary Coding Variables", "type": "Variable Set"}, "priorVersion": {"href": "/mdr/adam/adam-occds-1-0/datastructures/OCCDS/variables/ATCy", "title": "ATC Level y Text", "type": "Analysis Variable"}, "self": {"href": "/mdr/adam/adam-occds-1-1/datastructures/OCCDS/variables/ATCy", "title": "ATC Level y Text", "type": "Analysis Variable"}}, "core": "Cond", "describedValueDomain": "WHO Drug", "description": "Corresponds to the ATC Level Text for WHO Drug. Include the dictionary version in the variable metadata. \\n Conditional, based on analysis at multiple levels (y)", "label": "ATC Level y Text", "name": "ATCy", "ordinal": "5", "simpleDatatype": "Char"}, {"_links": {"parentDatastructure": {"href": "/mdr/adam/adam-occds-1-1/datastructures/OCCDS", "title": "Occurrence Data Structure", "type": "Data Structure"}, "parentProduct": {"href": "/mdr/adam/adam-occds-1-1", "title": "ADaM Structure for Occurrence Data (OCCDS) Version 1.1", "type": "Implementation Guide"}, "parentVariableSet": {"href": "/mdr/adam/adam-occds-1-1/datastructures/OCCDS/varsets/WHODrugDictionaryCoding", "title": "OCCDS WHO Drug Dictionary Coding Variables", "type": "Variable Set"}, "priorVersion": {"href": "/mdr/adam/adam-occds-1-0/datastructures/OCCDS/variables/ATCyCD", "title": "ATC Level y Code", "type": "Analysis Variable"}, "self": {"href": "/mdr/adam/adam-occds-1-1/datastructures/OCCDS/variables/ATCyCD", "title": "ATC Level y Code", "type": "Analysis Variable"}}, "core": "Cond", "describedValueDomain": "WHO Drug", "description": "Corresponds to the ATC Level Code for WHO Drug. Include the dictionary version in the variable metadata. \\n Conditional, based on analysis at multiple levels (y)", "label": "ATC Level y Code", "name": "ATCyCD", "ordinal": "6", "simpleDatatype": "Char"}], "label": "OCCDS WHO Drug Dictionary Coding Variables", "name": "WHO Drug Dictionary Coding", "ordinal": "4"}, {"_links": {"parentDatastructure": {"href": "/mdr/adam/adam-occds-1-1/datastructures/OCCDS", "title": "Occurrence Data Structure", "type": "Data Structure"}, "parentProduct": {"href": "/mdr/adam/adam-occds-1-1", "title": "ADaM Structure for Occurrence Data (OCCDS) Version 1.1", "type": "Implementation Guide"}, "priorVersion": {"href": "/mdr/adam/adam-occds-1-0/datastructures/OCCDS/varsets/OtherCategorization", "title": "Other Categorization Variables", "type": "Variable Set"}, "self": {"href": "/mdr/adam/adam-occds-1-1/datastructures/OCCDS/varsets/OtherCategorization", "title": "OCCDS Other Categorization Variables", "type": "Variable Set"}}, "analysisVariables": [{"_links": {"parentDatastructure": {"href": "/mdr/adam/adam-occds-1-1/datastructures/OCCDS", "title": "Occurrence Data Structure", "type": "Data Structure"}, "parentProduct": {"href": "/mdr/adam/adam-occds-1-1", "title": "ADaM Structure for Occurrence Data (OCCDS) Version 1.1", "type": "Implementation Guide"}, "parentVariableSet": {"href": "/mdr/adam/adam-occds-1-1/datastructures/OCCDS/varsets/OtherCategorization", "title": "OCCDS Other Categorization Variables", "type": "Variable Set"}, "priorVersion": {"href": "/mdr/adam/adam-occds-1-0/datastructures/OCCDS/variables/--CAT", "title": "Category", "type": "Analysis Variable"}, "self": {"href": "/mdr/adam/adam-occds-1-1/datastructures/OCCDS/variables/--CAT", "title": "Category", "type": "Analysis Variable"}}, "core": "Perm", "description": "Copied from XX.--CAT \\n This variable label differs depending on the SDTM domain. See SDTM v1.7 Section 2.2, The General Observation Classes, and SDTMIG v3.3 Section 6, Domain Models Based on the General Observation Classes, for details.", "label": "Category", "name": "--CAT", "ordinal": "1", "simpleDatatype": "Char"}, {"_links": {"parentDatastructure": {"href": "/mdr/adam/adam-occds-1-1/datastructures/OCCDS", "title": "Occurrence Data Structure", "type": "Data Structure"}, "parentProduct": {"href": "/mdr/adam/adam-occds-1-1", "title": "ADaM Structure for Occurrence Data (OCCDS) Version 1.1", "type": "Implementation Guide"}, "parentVariableSet": {"href": "/mdr/adam/adam-occds-1-1/datastructures/OCCDS/varsets/OtherCategorization", "title": "OCCDS Other Categorization Variables", "type": "Variable Set"}, "priorVersion": {"href": "/mdr/adam/adam-occds-1-0/datastructures/OCCDS/variables/--SCAT", "title": "Subcategory", "type": "Analysis Variable"}, "self": {"href": "/mdr/adam/adam-occds-1-1/datastructures/OCCDS/variables/--SCAT", "title": "Subcategory", "type": "Analysis Variable"}}, "core": "Perm", "description": "Copied from XX.--SCAT \\n This variable label differs depending on the SDTM domain. See SDTM v1.7 Section 2.2, The General Observation Classes, and SDTMIG v3.3 Section 6, Domain Models Based on the General Observation Classes, for details.", "label": "Subcategory", "name": "--SCAT", "ordinal": "2", "simpleDatatype": "Char"}, {"_links": {"parentDatastructure": {"href": "/mdr/adam/adam-occds-1-1/datastructures/OCCDS", "title": "Occurrence Data Structure", "type": "Data Structure"}, "parentProduct": {"href": "/mdr/adam/adam-occds-1-1", "title": "ADaM Structure for Occurrence Data (OCCDS) Version 1.1", "type": "Implementation Guide"}, "parentVariableSet": {"href": "/mdr/adam/adam-occds-1-1/datastructures/OCCDS/varsets/OtherCategorization", "title": "OCCDS Other Categorization Variables", "type": "Variable Set"}, "priorVersion": {"href": "/mdr/adam/adam-occds-1-0/datastructures/OCCDS/variables/ACATy", "title": "Analysis Category y", "type": "Analysis Variable"}, "self": {"href": "/mdr/adam/adam-occds-1-1/datastructures/OCCDS/variables/ACATy", "title": "Analysis Category y", "type": "Analysis Variable"}}, "core": "Perm", "description": "Category used in analysis. May be derived from --CAT and/or --SCAT. Examples include records of special interest like prohibited medications, concomitant medications taken during an infusion reaction, growth factors, antimicrobial medications, and other such categories not defined elsewhere or present in SDTM domains.", "label": "Analysis Category y", "name": "ACATy", "ordinal": "3", "simpleDatatype": "Char"}], "label": "OCCDS Other Categorization Variables", "name": "Other Categorization", "ordinal": "5"}, {"_links": {"parentDatastructure": {"href": "/mdr/adam/adam-occds-1-1/datastructures/OCCDS", "title": "Occurrence Data Structure", "type": "Data Structure"}, "parentProduct": {"href": "/mdr/adam/adam-occds-1-1", "title": "ADaM Structure for Occurrence Data (OCCDS) Version 1.1", "type": "Implementation Guide"}, "priorVersion": {"href": "/mdr/adam/adam-occds-1-0/datastructures/OCCDS/varsets/Timing", "title": "Timing Variables", "type": "Variable Set"}, "self": {"href": "/mdr/adam/adam-occds-1-1/datastructures/OCCDS/varsets/Timing", "title": "OCCDS Timing Variables", "type": "Variable Set"}}, "analysisVariables": [{"_links": {"parentDatastructure": {"href": "/mdr/adam/adam-occds-1-1/datastructures/OCCDS", "title": "Occurrence Data Structure", "type": "Data Structure"}, "parentProduct": {"href": "/mdr/adam/adam-occds-1-1", "title": "ADaM Structure for Occurrence Data (OCCDS) Version 1.1", "type": "Implementation Guide"}, "parentVariableSet": {"href": "/mdr/adam/adam-occds-1-1/datastructures/OCCDS/varsets/Timing", "title": "OCCDS Timing Variables", "type": "Variable Set"}, "priorVersion": {"href": "/mdr/adam/adam-occds-1-0/datastructures/OCCDS/variables/--STDTC", "title": "Start Date/Time of Observation", "type": "Analysis Variable"}, "self": {"href": "/mdr/adam/adam-occds-1-1/datastructures/OCCDS/variables/--STDTC", "title": "Start Date/Time of Observation", "type": "Analysis Variable"}}, "core": "Cond", "describedValueDomain": "ISO 8601", "description": "Copied from XX.-STDTC \\n Conditional on whether start date is pertinent for study and is populated in SDTM \\n This variable label differs depending on the SDTM domain. See SDTM v1.7 Section 2.2.5, Timing Variables for All Classes, and SDTMIG v3.3 Section 6, Domain Models Based on the General Observation Classes for details.", "label": "Start Date/Time of Observation", "name": "--STDTC", "ordinal": "1", "simpleDatatype": "Char"}, {"_links": {"parentDatastructure": {"href": "/mdr/adam/adam-occds-1-1/datastructures/OCCDS", "title": "Occurrence Data Structure", "type": "Data Structure"}, "parentProduct": {"href": "/mdr/adam/adam-occds-1-1", "title": "ADaM Structure for Occurrence Data (OCCDS) Version 1.1", "type": "Implementation Guide"}, "parentVariableSet": {"href": "/mdr/adam/adam-occds-1-1/datastructures/OCCDS/varsets/Timing", "title": "OCCDS Timing Variables", "type": "Variable Set"}, "priorVersion": {"href": "/mdr/adam/adam-occds-1-0/datastructures/OCCDS/variables/ASTDT", "title": "Analysis Start Date", "type": "Analysis Variable"}, "self": {"href": "/mdr/adam/adam-occds-1-1/datastructures/OCCDS/variables/ASTDT", "title": "Analysis Start Date", "type": "Analysis Variable"}}, "core": "Cond", "description": "Created from converting XX.--STDTC from character ISO 8601 format to numeric date format, applying imputation rules if specified in the statistical analysis plan (SAP) or metadata \\n Conditional on whether start date is pertinent for study and is populated in SDTM", "label": "Analysis Start Date", "name": "ASTDT", "ordinal": "2", "simpleDatatype": "Num"}, {"_links": {"parentDatastructure": {"href": "/mdr/adam/adam-occds-1-1/datastructures/OCCDS", "title": "Occurrence Data Structure", "type": "Data Structure"}, "parentProduct": {"href": "/mdr/adam/adam-occds-1-1", "title": "ADaM Structure for Occurrence Data (OCCDS) Version 1.1", "type": "Implementation Guide"}, "parentVariableSet": {"href": "/mdr/adam/adam-occds-1-1/datastructures/OCCDS/varsets/Timing", "title": "OCCDS Timing Variables", "type": "Variable Set"}, "priorVersion": {"href": "/mdr/adam/adam-occds-1-0/datastructures/OCCDS/variables/ASTTM", "title": "Analysis Start Time", "type": "Analysis Variable"}, "self": {"href": "/mdr/adam/adam-occds-1-1/datastructures/OCCDS/variables/ASTTM", "title": "Analysis Start Time", "type": "Analysis Variable"}}, "core": "Cond", "description": "Created from converting XX.--STDTC from character ISO 8601 format to numeric time format, applying imputation rules if specified in the SAP or metadata \\n Conditional on whether start time is pertinent for study and is populated in SDTM", "label": "Analysis Start Time", "name": "ASTTM", "ordinal": "3", "simpleDatatype": "Num"}, {"_links": {"parentDatastructure": {"href": "/mdr/adam/adam-occds-1-1/datastructures/OCCDS", "title": "Occurrence Data Structure", "type": "Data Structure"}, "parentProduct": {"href": "/mdr/adam/adam-occds-1-1", "title": "ADaM Structure for Occurrence Data (OCCDS) Version 1.1", "type": "Implementation Guide"}, "parentVariableSet": {"href": "/mdr/adam/adam-occds-1-1/datastructures/OCCDS/varsets/Timing", "title": "OCCDS Timing Variables", "type": "Variable Set"}, "priorVersion": {"href": "/mdr/adam/adam-occds-1-0/datastructures/OCCDS/variables/ASTDTM", "title": "Analysis Start Date/Time", "type": "Analysis Variable"}, "self": {"href": "/mdr/adam/adam-occds-1-1/datastructures/OCCDS/variables/ASTDTM", "title": "Analysis Start Datetime", "type": "Analysis Variable"}}, "core": "Cond", "description": "Created from converting XX.--STDTC from character ISO 8601 format to numeric datetime format, applying imputation rules if specified in the SAP or metadata \\n Conditional on whether start datetime is pertinent for study and is populated in SDTM", "label": "Analysis Start Datetime", "name": "ASTDTM", "ordinal": "4", "simpleDatatype": "Num"}, {"_links": {"codelist": [{"href": "/mdr/root/ct/adamct/codelists/C81223", "title": "Version-agnostic anchor resource for codelist C81223", "type": "Root Value Domain"}], "parentDatastructure": {"href": "/mdr/adam/adam-occds-1-1/datastructures/OCCDS", "title": "Occurrence Data Structure", "type": "Data Structure"}, "parentProduct": {"href": "/mdr/adam/adam-occds-1-1", "title": "ADaM Structure for Occurrence Data (OCCDS) Version 1.1", "type": "Implementation Guide"}, "parentVariableSet": {"href": "/mdr/adam/adam-occds-1-1/datastructures/OCCDS/varsets/Timing", "title": "OCCDS Timing Variables", "type": "Variable Set"}, "priorVersion": {"href": "/mdr/adam/adam-occds-1-0/datastructures/OCCDS/variables/ASTDTF", "title": "Analysis Start Date Imputation Flag", "type": "Analysis Variable"}, "self": {"href": "/mdr/adam/adam-occds-1-1/datastructures/OCCDS/variables/ASTDTF", "title": "Analysis Start Date Imputation Flag", "type": "Analysis Variable"}}, "codelistSubmissionValues": ["DATEFL"], "core": "Cond", "description": "The level of imputation of analysis start date. Imputation flags are described in ADaMIG v1.2 Section 3.1.3, Date and Time Imputation Flag Variables. \\n Conditional on whether ASTDT (or the date part of ASTDTM) was imputed", "label": "Analysis Start Date Imputation Flag", "name": "ASTDTF", "ordinal": "5", "simpleDatatype": "Char"}, {"_links": {"codelist": [{"href": "/mdr/root/ct/adamct/codelists/C81226", "title": "Version-agnostic anchor resource for codelist C81226", "type": "Root Value Domain"}], "parentDatastructure": {"href": "/mdr/adam/adam-occds-1-1/datastructures/OCCDS", "title": "Occurrence Data Structure", "type": "Data Structure"}, "parentProduct": {"href": "/mdr/adam/adam-occds-1-1", "title": "ADaM Structure for Occurrence Data (OCCDS) Version 1.1", "type": "Implementation Guide"}, "parentVariableSet": {"href": "/mdr/adam/adam-occds-1-1/datastructures/OCCDS/varsets/Timing", "title": "OCCDS Timing Variables", "type": "Variable Set"}, "priorVersion": {"href": "/mdr/adam/adam-occds-1-0/datastructures/OCCDS/variables/ASTTMF", "title": "Analysis Start Time Imputation Flag", "type": "Analysis Variable"}, "self": {"href": "/mdr/adam/adam-occds-1-1/datastructures/OCCDS/variables/ASTTMF", "title": "Analysis Start Time Imputation Flag", "type": "Analysis Variable"}}, "codelistSubmissionValues": ["TIMEFL"], "core": "Cond", "description": "The level of imputation of analysis start time. Imputation flags are described in ADaMIG v1.2 Section 3.1.3, Date and Time Imputation Flag Variables. \\n Conditional on whether ASTTM (or the time part of ASTDTM) was imputed", "label": "Analysis Start Time Imputation Flag", "name": "ASTTMF", "ordinal": "6", "simpleDatatype": "Char"}, {"_links": {"parentDatastructure": {"href": "/mdr/adam/adam-occds-1-1/datastructures/OCCDS", "title": "Occurrence Data Structure", "type": "Data Structure"}, "parentProduct": {"href": "/mdr/adam/adam-occds-1-1", "title": "ADaM Structure for Occurrence Data (OCCDS) Version 1.1", "type": "Implementation Guide"}, "parentVariableSet": {"href": "/mdr/adam/adam-occds-1-1/datastructures/OCCDS/varsets/Timing", "title": "OCCDS Timing Variables", "type": "Variable Set"}, "priorVersion": {"href": "/mdr/adam/adam-occds-1-0/datastructures/OCCDS/variables/--ENDTC", "title": "End Date/Time of Observation", "type": "Analysis Variable"}, "self": {"href": "/mdr/adam/adam-occds-1-1/datastructures/OCCDS/variables/--ENDTC", "title": "End Date/Time of Observation", "type": "Analysis Variable"}}, "core": "Cond", "describedValueDomain": "ISO 8601", "description": "Copied from XX.--ENDTC \\n Conditional on whether end date is pertinent for study and is populated in SDTM \\n This variable label differs depending on the SDTM domain. See SDTM v1.7 Section 2.2.5, Timing Variables for All Classes, and SDTMIG v3.3 Section 6, Domain Models Based on the General Observation Classes, for details.", "label": "End Date/Time of Observation", "name": "--ENDTC", "ordinal": "7", "simpleDatatype": "Char"}, {"_links": {"parentDatastructure": {"href": "/mdr/adam/adam-occds-1-1/datastructures/OCCDS", "title": "Occurrence Data Structure", "type": "Data Structure"}, "parentProduct": {"href": "/mdr/adam/adam-occds-1-1", "title": "ADaM Structure for Occurrence Data (OCCDS) Version 1.1", "type": "Implementation Guide"}, "parentVariableSet": {"href": "/mdr/adam/adam-occds-1-1/datastructures/OCCDS/varsets/Timing", "title": "OCCDS Timing Variables", "type": "Variable Set"}, "priorVersion": {"href": "/mdr/adam/adam-occds-1-0/datastructures/OCCDS/variables/AENDT", "title": "Analysis End Date", "type": "Analysis Variable"}, "self": {"href": "/mdr/adam/adam-occds-1-1/datastructures/OCCDS/variables/AENDT", "title": "Analysis End Date", "type": "Analysis Variable"}}, "core": "Cond", "description": "Created from converting XX.--ENDTC from character ISO 8601 format to numeric date format, applying imputation rules if specified in the SAP or metadata \\n Conditional on whether end date is pertinent for study and is populated in SDTM", "label": "Analysis End Date", "name": "AENDT", "ordinal": "8", "simpleDatatype": "Num"}, {"_links": {"parentDatastructure": {"href": "/mdr/adam/adam-occds-1-1/datastructures/OCCDS", "title": "Occurrence Data Structure", "type": "Data Structure"}, "parentProduct": {"href": "/mdr/adam/adam-occds-1-1", "title": "ADaM Structure for Occurrence Data (OCCDS) Version 1.1", "type": "Implementation Guide"}, "parentVariableSet": {"href": "/mdr/adam/adam-occds-1-1/datastructures/OCCDS/varsets/Timing", "title": "OCCDS Timing Variables", "type": "Variable Set"}, "priorVersion": {"href": "/mdr/adam/adam-occds-1-0/datastructures/OCCDS/variables/AENTM", "title": "Analysis End Time", "type": "Analysis Variable"}, "self": {"href": "/mdr/adam/adam-occds-1-1/datastructures/OCCDS/variables/AENTM", "title": "Analysis End Time", "type": "Analysis Variable"}}, "core": "Cond", "description": "Created from converting XX.--ENDTC from character ISO 8601 format to numeric time format, applying imputation rules if specified in the SAP or metadata \\n Conditional on whether end time is pertinent for study and is populated in SDTM", "label": "Analysis End Time", "name": "AENTM", "ordinal": "9", "simpleDatatype": "Num"}, {"_links": {"parentDatastructure": {"href": "/mdr/adam/adam-occds-1-1/datastructures/OCCDS", "title": "Occurrence Data Structure", "type": "Data Structure"}, "parentProduct": {"href": "/mdr/adam/adam-occds-1-1", "title": "ADaM Structure for Occurrence Data (OCCDS) Version 1.1", "type": "Implementation Guide"}, "parentVariableSet": {"href": "/mdr/adam/adam-occds-1-1/datastructures/OCCDS/varsets/Timing", "title": "OCCDS Timing Variables", "type": "Variable Set"}, "priorVersion": {"href": "/mdr/adam/adam-occds-1-0/datastructures/OCCDS/variables/AENDTM", "title": "Analysis End Date/Time", "type": "Analysis Variable"}, "self": {"href": "/mdr/adam/adam-occds-1-1/datastructures/OCCDS/variables/AENDTM", "title": "Analysis End Datetime", "type": "Analysis Variable"}}, "core": "Cond", "description": "Created from converting XX.--ENDTC from character ISO 8601 format to numeric datetime format, applying imputation rules if specified in the SAP or metadata \\n Conditional on whether end datetime is pertinent for study and is populated in SDTM", "label": "Analysis End Datetime", "name": "AENDTM", "ordinal": "10", "simpleDatatype": "Num"}, {"_links": {"codelist": [{"href": "/mdr/root/ct/adamct/codelists/C81223", "title": "Version-agnostic anchor resource for codelist C81223", "type": "Root Value Domain"}], "parentDatastructure": {"href": "/mdr/adam/adam-occds-1-1/datastructures/OCCDS", "title": "Occurrence Data Structure", "type": "Data Structure"}, "parentProduct": {"href": "/mdr/adam/adam-occds-1-1", "title": "ADaM Structure for Occurrence Data (OCCDS) Version 1.1", "type": "Implementation Guide"}, "parentVariableSet": {"href": "/mdr/adam/adam-occds-1-1/datastructures/OCCDS/varsets/Timing", "title": "OCCDS Timing Variables", "type": "Variable Set"}, "priorVersion": {"href": "/mdr/adam/adam-occds-1-0/datastructures/OCCDS/variables/AENDTF", "title": "Analysis End Date Imputation Flag", "type": "Analysis Variable"}, "self": {"href": "/mdr/adam/adam-occds-1-1/datastructures/OCCDS/variables/AENDTF", "title": "Analysis End Date Imputation Flag", "type": "Analysis Variable"}}, "codelistSubmissionValues": ["DATEFL"], "core": "Cond", "description": "The level of imputation of analysis end date. Imputation flags are described in the ADaMIG v1.2 Section 3.1.3, Date and Time Imputation Flag Variables. \\n Conditional on whether AENDT (or the date part of AENDTM) was imputed", "label": "Analysis End Date Imputation Flag", "name": "AENDTF", "ordinal": "11", "simpleDatatype": "Char"}, {"_links": {"codelist": [{"href": "/mdr/root/ct/adamct/codelists/C81226", "title": "Version-agnostic anchor resource for codelist C81226", "type": "Root Value Domain"}], "parentDatastructure": {"href": "/mdr/adam/adam-occds-1-1/datastructures/OCCDS", "title": "Occurrence Data Structure", "type": "Data Structure"}, "parentProduct": {"href": "/mdr/adam/adam-occds-1-1", "title": "ADaM Structure for Occurrence Data (OCCDS) Version 1.1", "type": "Implementation Guide"}, "parentVariableSet": {"href": "/mdr/adam/adam-occds-1-1/datastructures/OCCDS/varsets/Timing", "title": "OCCDS Timing Variables", "type": "Variable Set"}, "priorVersion": {"href": "/mdr/adam/adam-occds-1-0/datastructures/OCCDS/variables/AENTMF", "title": "Analysis End Time Imputation Flag", "type": "Analysis Variable"}, "self": {"href": "/mdr/adam/adam-occds-1-1/datastructures/OCCDS/variables/AENTMF", "title": "Analysis End Time Imputation Flag", "type": "Analysis Variable"}}, "codelistSubmissionValues": ["TIMEFL"], "core": "Cond", "description": "The level of imputation of analysis end time. Imputation flags are described in the ADaMIG v1.2 Section 3.1.3, Date and Time Imputation Flag Variables. \\n Conditional on whether AENTM (or the date part of AENDTM) was imputed", "label": "Analysis End Time Imputation Flag", "name": "AENTMF", "ordinal": "12", "simpleDatatype": "Char"}, {"_links": {"parentDatastructure": {"href": "/mdr/adam/adam-occds-1-1/datastructures/OCCDS", "title": "Occurrence Data Structure", "type": "Data Structure"}, "parentProduct": {"href": "/mdr/adam/adam-occds-1-1", "title": "ADaM Structure for Occurrence Data (OCCDS) Version 1.1", "type": "Implementation Guide"}, "parentVariableSet": {"href": "/mdr/adam/adam-occds-1-1/datastructures/OCCDS/varsets/Timing", "title": "OCCDS Timing Variables", "type": "Variable Set"}, "priorVersion": {"href": "/mdr/adam/adam-occds-1-0/datastructures/OCCDS/variables/ASTDY", "title": "Analysis Start Relative Day", "type": "Analysis Variable"}, "self": {"href": "/mdr/adam/adam-occds-1-1/datastructures/OCCDS/variables/ASTDY", "title": "Analysis Start Relative Day", "type": "Analysis Variable"}}, "core": "Cond", "description": "The number of days from an anchor date (not necessarily DM.RFSTDTC) to ASTDT \\n Example derivation: \\n ASTDT - ADSL.TRTSDT + 1 if ASTDT >= ADSL.TRTSDT, else ASTDT - ADSL.TRTSDT if ASTDT< ADSL.TRTSDT \\n This variable may instead be copied from --STDY. \\n Conditional on whether analysis start relative day is pertinent to the study", "label": "Analysis Start Relative Day", "name": "ASTDY", "ordinal": "13", "simpleDatatype": "Num"}, {"_links": {"parentDatastructure": {"href": "/mdr/adam/adam-occds-1-1/datastructures/OCCDS", "title": "Occurrence Data Structure", "type": "Data Structure"}, "parentProduct": {"href": "/mdr/adam/adam-occds-1-1", "title": "ADaM Structure for Occurrence Data (OCCDS) Version 1.1", "type": "Implementation Guide"}, "parentVariableSet": {"href": "/mdr/adam/adam-occds-1-1/datastructures/OCCDS/varsets/Timing", "title": "OCCDS Timing Variables", "type": "Variable Set"}, "priorVersion": {"href": "/mdr/adam/adam-occds-1-0/datastructures/OCCDS/variables/--STDY", "title": "Study Day of Start of Observation", "type": "Analysis Variable"}, "self": {"href": "/mdr/adam/adam-occds-1-1/datastructures/OCCDS/variables/--STDY", "title": "Study Day of Start of Observation*", "type": "Analysis Variable"}}, "core": "Perm", "description": "Copied from XX.--STDY \\n ASTDY may differ from --STDY due to date imputation and the option in ADaM to use a reference date other than SDTM's RFSTDTC. Including XX.--STDY in addition to ASTDY adds traceability. \\n For SubClass ADVERSE EVENT, conditional on whether the AESTDY variable is in the SDTM AE dataset", "label": "Study Day of Start of Observation*", "name": "--STDY", "ordinal": "14", "simpleDatatype": "Num"}, {"_links": {"parentDatastructure": {"href": "/mdr/adam/adam-occds-1-1/datastructures/OCCDS", "title": "Occurrence Data Structure", "type": "Data Structure"}, "parentProduct": {"href": "/mdr/adam/adam-occds-1-1", "title": "ADaM Structure for Occurrence Data (OCCDS) Version 1.1", "type": "Implementation Guide"}, "parentVariableSet": {"href": "/mdr/adam/adam-occds-1-1/datastructures/OCCDS/varsets/Timing", "title": "OCCDS Timing Variables", "type": "Variable Set"}, "priorVersion": {"href": "/mdr/adam/adam-occds-1-0/datastructures/OCCDS/variables/AENDY", "title": "Analysis End Relative Day", "type": "Analysis Variable"}, "self": {"href": "/mdr/adam/adam-occds-1-1/datastructures/OCCDS/variables/AENDY", "title": "Analysis End Relative Day", "type": "Analysis Variable"}}, "core": "Perm", "description": "The number of days from an anchor date (not necessarily DM.RFSTDTC) to AENDT \\n Example derivation: \\n AENDT - ADSL.TRTSDT + 1 if AENDT >= ADSL.TRTSDT, else AENDT - ADSL.TRTSDT if AENDT < ADSL.TRTSDT \\n This variable may instead be copied from --ENDY.", "label": "Analysis End Relative Day", "name": "AENDY", "ordinal": "15", "simpleDatatype": "Num"}, {"_links": {"parentDatastructure": {"href": "/mdr/adam/adam-occds-1-1/datastructures/OCCDS", "title": "Occurrence Data Structure", "type": "Data Structure"}, "parentProduct": {"href": "/mdr/adam/adam-occds-1-1", "title": "ADaM Structure for Occurrence Data (OCCDS) Version 1.1", "type": "Implementation Guide"}, "parentVariableSet": {"href": "/mdr/adam/adam-occds-1-1/datastructures/OCCDS/varsets/Timing", "title": "OCCDS Timing Variables", "type": "Variable Set"}, "priorVersion": {"href": "/mdr/adam/adam-occds-1-0/datastructures/OCCDS/variables/--ENDY", "title": "Study Day of End of Observation", "type": "Analysis Variable"}, "self": {"href": "/mdr/adam/adam-occds-1-1/datastructures/OCCDS/variables/--ENDY", "title": "Study Day of End of Observation*", "type": "Analysis Variable"}}, "core": "Perm", "description": "Copied from XX.--ENDY \\n AENDY may differ from --ENDY due to date imputation and the option in ADaM to use a reference date other than SDTM's RFSTDTC. Including XX.--ENDY in addition to AENDY adds traceability. \\n For SubClass ADVERSE EVENT, conditional on whether the AEENDY variable is in the SDTM AE dataset", "label": "Study Day of End of Observation*", "name": "--ENDY", "ordinal": "16", "simpleDatatype": "Num"}, {"_links": {"parentDatastructure": {"href": "/mdr/adam/adam-occds-1-1/datastructures/OCCDS", "title": "Occurrence Data Structure", "type": "Data Structure"}, "parentProduct": {"href": "/mdr/adam/adam-occds-1-1", "title": "ADaM Structure for Occurrence Data (OCCDS) Version 1.1", "type": "Implementation Guide"}, "parentVariableSet": {"href": "/mdr/adam/adam-occds-1-1/datastructures/OCCDS/varsets/Timing", "title": "OCCDS Timing Variables", "type": "Variable Set"}, "priorVersion": {"href": "/mdr/adam/adam-occds-1-0/datastructures/OCCDS/variables/ADURN", "title": "Analysis Duration (N)", "type": "Analysis Variable"}, "self": {"href": "/mdr/adam/adam-occds-1-1/datastructures/OCCDS/variables/ADURN", "title": "Analysis Duration (N)", "type": "Analysis Variable"}}, "core": "Perm", "description": "Derive from ASTDT (or ASTDTM) and AENDT (or AENDTM).", "label": "Analysis Duration (N)", "name": "ADURN", "ordinal": "17", "simpleDatatype": "Num"}, {"_links": {"codelist": [{"href": "/mdr/root/ct/sdtmct/codelists/C71620", "title": "Version-agnostic anchor resource for codelist C71620", "type": "Root Value Domain"}], "parentDatastructure": {"href": "/mdr/adam/adam-occds-1-1/datastructures/OCCDS", "title": "Occurrence Data Structure", "type": "Data Structure"}, "parentProduct": {"href": "/mdr/adam/adam-occds-1-1", "title": "ADaM Structure for Occurrence Data (OCCDS) Version 1.1", "type": "Implementation Guide"}, "parentVariableSet": {"href": "/mdr/adam/adam-occds-1-1/datastructures/OCCDS/varsets/Timing", "title": "OCCDS Timing Variables", "type": "Variable Set"}, "priorVersion": {"href": "/mdr/adam/adam-occds-1-0/datastructures/OCCDS/variables/ADURU", "title": "Analysis Duration Units", "type": "Analysis Variable"}, "self": {"href": "/mdr/adam/adam-occds-1-1/datastructures/OCCDS/variables/ADURU", "title": "Analysis Duration Units", "type": "Analysis Variable"}}, "codelistSubmissionValues": ["UNIT"], "core": "Cond", "description": "Conditional on whether ADURN is included", "label": "Analysis Duration Units", "name": "ADURU", "ordinal": "18", "simpleDatatype": "Char"}, {"_links": {"parentDatastructure": {"href": "/mdr/adam/adam-occds-1-1/datastructures/OCCDS", "title": "Occurrence Data Structure", "type": "Data Structure"}, "parentProduct": {"href": "/mdr/adam/adam-occds-1-1", "title": "ADaM Structure for Occurrence Data (OCCDS) Version 1.1", "type": "Implementation Guide"}, "parentVariableSet": {"href": "/mdr/adam/adam-occds-1-1/datastructures/OCCDS/varsets/Timing", "title": "OCCDS Timing Variables", "type": "Variable Set"}, "priorVersion": {"href": "/mdr/adam/adam-occds-1-0/datastructures/OCCDS/variables/--DUR", "title": "Duration of XX", "type": "Analysis Variable"}, "self": {"href": "/mdr/adam/adam-occds-1-1/datastructures/OCCDS/variables/--DUR", "title": "Duration of XX", "type": "Analysis Variable"}}, "core": "Perm", "describedValueDomain": "ISO 8601", "description": "Copied from XX.--DUR \\n Because --DUR is a collected field and ADURN is derived, the values will often differ. Including XX.--DUR in addition to ADURN adds traceability. \\n For SubClass ADVERSE EVENT, conditional on whether the AEDUR variable is in the SDTM AE dataset", "label": "Duration of XX", "name": "--DUR", "ordinal": "19", "simpleDatatype": "Char"}, {"_links": {"parentDatastructure": {"href": "/mdr/adam/adam-occds-1-1/datastructures/OCCDS", "title": "Occurrence Data Structure", "type": "Data Structure"}, "parentProduct": {"href": "/mdr/adam/adam-occds-1-1", "title": "ADaM Structure for Occurrence Data (OCCDS) Version 1.1", "type": "Implementation Guide"}, "parentVariableSet": {"href": "/mdr/adam/adam-occds-1-1/datastructures/OCCDS/varsets/Timing", "title": "OCCDS Timing Variables", "type": "Variable Set"}, "priorVersion": {"href": "/mdr/adam/adam-occds-1-0/datastructures/OCCDS/variables/APERIOD", "title": "Period", "type": "Analysis Variable"}, "self": {"href": "/mdr/adam/adam-occds-1-1/datastructures/OCCDS/variables/APERIOD", "title": "Period", "type": "Analysis Variable"}}, "core": "Perm", "description": "APERIOD is a record-level timing variable that represents the analysis period within the study associated with the record for analysis purposes. The value of APERIOD (if populated) must be one of the xx values found in the ADSL TRTxxP variables. See ADaMIG v1.2 Section 3.3.3, Timing Variables for BDS variables for more information on this variable. \\n For SubClass ADVERSE EVENT, conditional on whether multiple analysis periods are defined for the study", "label": "Period", "name": "APERIOD", "ordinal": "20", "simpleDatatype": "Num"}, {"_links": {"parentDatastructure": {"href": "/mdr/adam/adam-occds-1-1/datastructures/OCCDS", "title": "Occurrence Data Structure", "type": "Data Structure"}, "parentProduct": {"href": "/mdr/adam/adam-occds-1-1", "title": "ADaM Structure for Occurrence Data (OCCDS) Version 1.1", "type": "Implementation Guide"}, "parentVariableSet": {"href": "/mdr/adam/adam-occds-1-1/datastructures/OCCDS/varsets/Timing", "title": "OCCDS Timing Variables", "type": "Variable Set"}, "priorVersion": {"href": "/mdr/adam/adam-occds-1-0/datastructures/OCCDS/variables/APERIODC", "title": "Period (C)", "type": "Analysis Variable"}, "self": {"href": "/mdr/adam/adam-occds-1-1/datastructures/OCCDS/variables/APERIODC", "title": "Period (C)", "type": "Analysis Variable"}}, "core": "Perm", "description": "Text characterizing to which period the record belongs. One-to-one map to APERIOD.", "label": "Period (C)", "name": "APERIODC", "ordinal": "21", "simpleDatatype": "Char"}, {"_links": {"parentDatastructure": {"href": "/mdr/adam/adam-occds-1-1/datastructures/OCCDS", "title": "Occurrence Data Structure", "type": "Data Structure"}, "parentProduct": {"href": "/mdr/adam/adam-occds-1-1", "title": "ADaM Structure for Occurrence Data (OCCDS) Version 1.1", "type": "Implementation Guide"}, "parentVariableSet": {"href": "/mdr/adam/adam-occds-1-1/datastructures/OCCDS/varsets/Timing", "title": "OCCDS Timing Variables", "type": "Variable Set"}, "priorVersion": {"href": "/mdr/adam/adam-occds-1-0/datastructures/OCCDS/variables/APHASE", "title": "Phase", "type": "Analysis Variable"}, "self": {"href": "/mdr/adam/adam-occds-1-1/datastructures/OCCDS/variables/APHASE", "title": "Phase", "type": "Analysis Variable"}}, "core": "Perm", "description": "APHASE is a categorization of timing within a study, for example a higher-level categorization of APERIOD or an analysis epoch. For example, APHASE could describe spans of time for SCREENING, ON TREATMENT, and FOLLOW-UP. See the ADaM Implementation Guide v1.2 for more information on this variable.", "label": "Phase", "name": "APHASE", "ordinal": "22", "simpleDatatype": "Char"}], "label": "OCCDS Timing Variables", "name": "Timing", "ordinal": "6"}, {"_links": {"parentDatastructure": {"href": "/mdr/adam/adam-occds-1-1/datastructures/OCCDS", "title": "Occurrence Data Structure", "type": "Data Structure"}, "parentProduct": {"href": "/mdr/adam/adam-occds-1-1", "title": "ADaM Structure for Occurrence Data (OCCDS) Version 1.1", "type": "Implementation Guide"}, "priorVersion": {"href": "/mdr/adam/adam-occds-1-0/datastructures/OCCDS/varsets/SDTMIndicator", "title": "SDTM Indicator Variables", "type": "Variable Set"}, "self": {"href": "/mdr/adam/adam-occds-1-1/datastructures/OCCDS/varsets/SDTMIndicator", "title": "OCCDS SDTM Indicator Variables", "type": "Variable Set"}}, "analysisVariables": [{"_links": {"codelist": [{"href": "/mdr/root/ct/sdtmct/codelists/C66742", "title": "Version-agnostic anchor resource for codelist C66742", "type": "Root Value Domain"}], "parentDatastructure": {"href": "/mdr/adam/adam-occds-1-1/datastructures/OCCDS", "title": "Occurrence Data Structure", "type": "Data Structure"}, "parentProduct": {"href": "/mdr/adam/adam-occds-1-1", "title": "ADaM Structure for Occurrence Data (OCCDS) Version 1.1", "type": "Implementation Guide"}, "parentVariableSet": {"href": "/mdr/adam/adam-occds-1-1/datastructures/OCCDS/varsets/SDTMIndicator", "title": "OCCDS SDTM Indicator Variables", "type": "Variable Set"}, "priorVersion": {"href": "/mdr/adam/adam-occds-1-0/datastructures/OCCDS/variables/--OCCUR", "title": "XX Occurrence", "type": "Analysis Variable"}, "self": {"href": "/mdr/adam/adam-occds-1-1/datastructures/OCCDS/variables/--OCCUR", "title": "XX Occurrence", "type": "Analysis Variable"}}, "codelistSubmissionValues": ["NY"], "core": "Cond", "description": "Copied from XX.--OCCUR \\n Conditional on whether this content is pertinent for analysis and is populated in SDTM \\n SDTM does not allow variable AEOCCUR, so this variable is not available to include in ADaM.", "label": "XX Occurrence", "name": "--OCCUR", "ordinal": "1", "simpleDatatype": "Char"}, {"_links": {"codelist": [{"href": "/mdr/root/ct/sdtmct/codelists/C66742", "title": "Version-agnostic anchor resource for codelist C66742", "type": "Root Value Domain"}], "parentDatastructure": {"href": "/mdr/adam/adam-occds-1-1/datastructures/OCCDS", "title": "Occurrence Data Structure", "type": "Data Structure"}, "parentProduct": {"href": "/mdr/adam/adam-occds-1-1", "title": "ADaM Structure for Occurrence Data (OCCDS) Version 1.1", "type": "Implementation Guide"}, "parentVariableSet": {"href": "/mdr/adam/adam-occds-1-1/datastructures/OCCDS/varsets/SDTMIndicator", "title": "OCCDS SDTM Indicator Variables", "type": "Variable Set"}, "priorVersion": {"href": "/mdr/adam/adam-occds-1-0/datastructures/OCCDS/variables/--PRESP", "title": "XX Pre-Specified", "type": "Analysis Variable"}, "self": {"href": "/mdr/adam/adam-occds-1-1/datastructures/OCCDS/variables/--PRESP", "title": "XX Pre-Specified", "type": "Analysis Variable"}}, "codelistSubmissionValues": ["NY"], "core": "Cond", "description": "Copied from XX.--PRESP \\n Conditional on whether this content is pertinent for analysis and is populated in SDTM", "label": "XX Pre-Specified", "name": "--PRESP", "ordinal": "2", "simpleDatatype": "Char"}], "label": "OCCDS SDTM Indicator Variables", "name": "SDTM Indicator", "ordinal": "7"}, {"_links": {"parentDatastructure": {"href": "/mdr/adam/adam-occds-1-1/datastructures/OCCDS", "title": "Occurrence Data Structure", "type": "Data Structure"}, "parentProduct": {"href": "/mdr/adam/adam-occds-1-1", "title": "ADaM Structure for Occurrence Data (OCCDS) Version 1.1", "type": "Implementation Guide"}, "priorVersion": {"href": "/mdr/adam/adam-occds-1-0/datastructures/OCCDS/varsets/Indicator", "title": "OCCDS Indicator Variables", "type": "Variable Set"}, "self": {"href": "/mdr/adam/adam-occds-1-1/datastructures/OCCDS/varsets/Indicator", "title": "OCCDS Indicator Variables", "type": "Variable Set"}}, "analysisVariables": [{"_links": {"parentDatastructure": {"href": "/mdr/adam/adam-occds-1-1/datastructures/OCCDS", "title": "Occurrence Data Structure", "type": "Data Structure"}, "parentProduct": {"href": "/mdr/adam/adam-occds-1-1", "title": "ADaM Structure for Occurrence Data (OCCDS) Version 1.1", "type": "Implementation Guide"}, "parentVariableSet": {"href": "/mdr/adam/adam-occds-1-1/datastructures/OCCDS/varsets/Indicator", "title": "OCCDS Indicator Variables", "type": "Variable Set"}, "priorVersion": {"href": "/mdr/adam/adam-occds-1-0/datastructures/OCCDS/variables/ANLzzFL", "title": "Analysis Flag zz", "type": "Analysis Variable"}, "self": {"href": "/mdr/adam/adam-occds-1-1/datastructures/OCCDS/variables/ANLzzFL", "title": "Analysis Flag zz", "type": "Analysis Variable"}}, "core": "Cond", "description": "The ANLzzFL flag is useful in many circumstances; an example is when more than 1 coding path is included for analysis, in which case separate analysis flags could be used to denote primary coding path or the records used for analysis from each coding path. A codelist of Y, N, null may be used as described in ADaMIG v1.2 Section 3.3.8, Indicator Variables for BDS Datasets. \\n This variable is conditional on whether analysis records flags are needed for analysis.", "label": "Analysis Flag zz", "name": "ANLzzFL", "ordinal": "1", "simpleDatatype": "Char", "valueList": ["Y"]}], "label": "OCCDS Indicator Variables", "name": "Indicator", "ordinal": "8"}, {"_links": {"parentDatastructure": {"href": "/mdr/adam/adam-occds-1-1/datastructures/OCCDS", "title": "Occurrence Data Structure", "type": "Data Structure"}, "parentProduct": {"href": "/mdr/adam/adam-occds-1-1", "title": "ADaM Structure for Occurrence Data (OCCDS) Version 1.1", "type": "Implementation Guide"}, "priorVersion": {"href": "/mdr/adam/adam-occds-1-0/datastructures/OCCDS/varsets/AdverseEventsIndicator", "title": "Adverse Events Indicator Variables ", "type": "Variable Set"}, "self": {"href": "/mdr/adam/adam-occds-1-1/datastructures/OCCDS/varsets/AdverseEventsIndicator", "title": "OCCDS Adverse Events Indicator Variables", "type": "Variable Set"}}, "analysisVariables": [{"_links": {"parentDatastructure": {"href": "/mdr/adam/adam-occds-1-1/datastructures/OCCDS", "title": "Occurrence Data Structure", "type": "Data Structure"}, "parentProduct": {"href": "/mdr/adam/adam-occds-1-1", "title": "ADaM Structure for Occurrence Data (OCCDS) Version 1.1", "type": "Implementation Guide"}, "parentVariableSet": {"href": "/mdr/adam/adam-occds-1-1/datastructures/OCCDS/varsets/AdverseEventsIndicator", "title": "OCCDS Adverse Events Indicator Variables", "type": "Variable Set"}, "priorVersion": {"href": "/mdr/adam/adam-occds-1-0/datastructures/OCCDS/variables/TRTEMFL", "title": "Treatment Emergent Analysis Flag", "type": "Analysis Variable"}, "self": {"href": "/mdr/adam/adam-occds-1-1/datastructures/OCCDS/variables/TRTEMFL", "title": "Treatment Emergent Analysis Flag", "type": "Analysis Variable"}}, "core": "Cond", "description": "Treatment-emergent flag as defined for analysis \\n Example derivation: \\n If ADSL.TRTSDT<=ASTDT<=ADSL.TRTEDT + x days then TRTEMFL=\"Y\" \\n The number x in this derivation is defined by the producer and often incorporates the known half-life of the drug. \\n For datasets other than SubClass ADVERSE EVENT, this variable is conditional on whether the concept of treatment emergent is a key feature of the analysis.", "label": "Treatment Emergent Analysis Flag", "name": "TRTEMFL", "ordinal": "1", "simpleDatatype": "Char", "valueList": ["Y"]}, {"_links": {"parentDatastructure": {"href": "/mdr/adam/adam-occds-1-1/datastructures/OCCDS", "title": "Occurrence Data Structure", "type": "Data Structure"}, "parentProduct": {"href": "/mdr/adam/adam-occds-1-1", "title": "ADaM Structure for Occurrence Data (OCCDS) Version 1.1", "type": "Implementation Guide"}, "parentVariableSet": {"href": "/mdr/adam/adam-occds-1-1/datastructures/OCCDS/varsets/AdverseEventsIndicator", "title": "OCCDS Adverse Events Indicator Variables", "type": "Variable Set"}, "self": {"href": "/mdr/adam/adam-occds-1-1/datastructures/OCCDS/variables/TREMxxFL", "title": "Treatment Emergent Period xx Flag", "type": "Analysis Variable"}}, "core": "Cond", "description": "This variable is required if there are multiple periods where treatment emergence is a key feature of the analysis for each period. \\n If TREMxxFL is included, TRTEMFL is defined as the overall treatment-emergent flag.", "label": "Treatment Emergent Period xx Flag", "name": "TREMxxFL", "ordinal": "2", "simpleDatatype": "Char", "valueList": ["Y"]}, {"_links": {"parentDatastructure": {"href": "/mdr/adam/adam-occds-1-1/datastructures/OCCDS", "title": "Occurrence Data Structure", "type": "Data Structure"}, "parentProduct": {"href": "/mdr/adam/adam-occds-1-1", "title": "ADaM Structure for Occurrence Data (OCCDS) Version 1.1", "type": "Implementation Guide"}, "parentVariableSet": {"href": "/mdr/adam/adam-occds-1-1/datastructures/OCCDS/varsets/AdverseEventsIndicator", "title": "OCCDS Adverse Events Indicator Variables", "type": "Variable Set"}, "self": {"href": "/mdr/adam/adam-occds-1-1/datastructures/OCCDS/variables/TRTEMwFL", "title": "Treatment Emergent Analysis w Flag", "type": "Analysis Variable"}}, "core": "Perm", "description": "This variable is used if there are other analysis needs (e.g., different cut-offs) where treatment emergence is a key feature of the analysis. \\n If TREMwFL is included, TRTEMFL is defined as the overall treatment-emergent flag.", "label": "Treatment Emergent Analysis w Flag", "name": "TRTEMwFL", "ordinal": "3", "simpleDatatype": "Char", "valueList": ["Y"]}, {"_links": {"codelist": [{"href": "/mdr/root/ct/sdtmct/codelists/C66742", "title": "Version-agnostic anchor resource for codelist C66742", "type": "Root Value Domain"}], "parentDatastructure": {"href": "/mdr/adam/adam-occds-1-1/datastructures/OCCDS", "title": "Occurrence Data Structure", "type": "Data Structure"}, "parentProduct": {"href": "/mdr/adam/adam-occds-1-1", "title": "ADaM Structure for Occurrence Data (OCCDS) Version 1.1", "type": "Implementation Guide"}, "parentVariableSet": {"href": "/mdr/adam/adam-occds-1-1/datastructures/OCCDS/varsets/AdverseEventsIndicator", "title": "OCCDS Adverse Events Indicator Variables", "type": "Variable Set"}, "priorVersion": {"href": "/mdr/adam/adam-occds-1-0/datastructures/OCCDS/variables/AETRTEM", "title": "Treatment Emergent Flag", "type": "Analysis Variable"}, "self": {"href": "/mdr/adam/adam-occds-1-1/datastructures/OCCDS/variables/AETRTEM", "title": "Treatment Emergent Flag", "type": "Analysis Variable"}}, "codelistSubmissionValues": ["NY"], "core": "Perm", "description": "Treatment-emergent flag from SDTM, if available. See SDTMIG v3.3, Appendix C2, Supplemental Qualifiers Name Codes, for more information. \\n Derivation: \\n SUPPAE.QVAL where QNAM=\"AETRTEM\" \\n TRTEMFL may differ from AETRTEM due to different definitions, date imputation, and other analysis rules. Including AETRTEM in addition to TRTEMFL will add traceability. \\n For SubClass ADVERSE EVENT, conditional on whether the AETRTEM variable is in the SDTM AE dataset and populated", "label": "Treatment Emergent Flag", "name": "AETRTEM", "ordinal": "4", "simpleDatatype": "Char"}], "label": "OCCDS Adverse Events Indicator Variables", "name": "Adverse Events Indicator", "ordinal": "9"}, {"_links": {"parentDatastructure": {"href": "/mdr/adam/adam-occds-1-1/datastructures/OCCDS", "title": "Occurrence Data Structure", "type": "Data Structure"}, "parentProduct": {"href": "/mdr/adam/adam-occds-1-1", "title": "ADaM Structure for Occurrence Data (OCCDS) Version 1.1", "type": "Implementation Guide"}, "self": {"href": "/mdr/adam/adam-occds-1-1/datastructures/OCCDS/varsets/ConcomitantMedicationsIndicator", "title": "OCCDS Concomitant Medications Indicator Variables", "type": "Variable Set"}}, "analysisVariables": [{"_links": {"parentDatastructure": {"href": "/mdr/adam/adam-occds-1-1/datastructures/OCCDS", "title": "Occurrence Data Structure", "type": "Data Structure"}, "parentProduct": {"href": "/mdr/adam/adam-occds-1-1", "title": "ADaM Structure for Occurrence Data (OCCDS) Version 1.1", "type": "Implementation Guide"}, "parentVariableSet": {"href": "/mdr/adam/adam-occds-1-1/datastructures/OCCDS/varsets/ConcomitantMedicationsIndicator", "title": "OCCDS Concomitant Medications Indicator Variables", "type": "Variable Set"}, "priorVersion": {"href": "/mdr/adam/adam-occds-1-0/datastructures/OCCDS/variables/ONTRTFL", "title": "On Treatment\nRecord Flag", "type": "Analysis Variable"}, "self": {"href": "/mdr/adam/adam-occds-1-1/datastructures/OCCDS/variables/ONTRTFL", "title": "On Treatment Record Flag", "type": "Analysis Variable"}}, "core": "Cond", "description": "Character indicator of whether the observation occurred while the subject was on treatment. A codelist of Y, N, null may be used as described in ADaMIG Section 3.3.8, Indicator Variables for BDS Datasets. \\n Example derivation: \\n If ADSL.TRTSDT <= ASTDT <= ADSL.TRTEDT then ONTRTFL = \"Y\" \\n This variable is conditional on whether the concept of on treatment is a feature of the study and used in analysis.", "label": "On Treatment Record Flag", "name": "ONTRTFL", "ordinal": "1", "simpleDatatype": "Char", "valueList": ["Y"]}, {"_links": {"parentDatastructure": {"href": "/mdr/adam/adam-occds-1-1/datastructures/OCCDS", "title": "Occurrence Data Structure", "type": "Data Structure"}, "parentProduct": {"href": "/mdr/adam/adam-occds-1-1", "title": "ADaM Structure for Occurrence Data (OCCDS) Version 1.1", "type": "Implementation Guide"}, "parentVariableSet": {"href": "/mdr/adam/adam-occds-1-1/datastructures/OCCDS/varsets/ConcomitantMedicationsIndicator", "title": "OCCDS Concomitant Medications Indicator Variables", "type": "Variable Set"}, "self": {"href": "/mdr/adam/adam-occds-1-1/datastructures/OCCDS/variables/ONTRxxFL", "title": "On Treatment Period xx Flag", "type": "Analysis Variable"}}, "core": "Perm", "description": "This variable is used if there are multiple periods where on treatment is a key feature of the analysis for each period. \\n If ONTRxxFL is included, ONTRTFL is defined as the overall on-treatment flag.", "label": "On Treatment Period xx Flag", "name": "ONTRxxFL", "ordinal": "2", "simpleDatatype": "Char", "valueList": ["Y"]}, {"_links": {"parentDatastructure": {"href": "/mdr/adam/adam-occds-1-1/datastructures/OCCDS", "title": "Occurrence Data Structure", "type": "Data Structure"}, "parentProduct": {"href": "/mdr/adam/adam-occds-1-1", "title": "ADaM Structure for Occurrence Data (OCCDS) Version 1.1", "type": "Implementation Guide"}, "parentVariableSet": {"href": "/mdr/adam/adam-occds-1-1/datastructures/OCCDS/varsets/ConcomitantMedicationsIndicator", "title": "OCCDS Concomitant Medications Indicator Variables", "type": "Variable Set"}, "self": {"href": "/mdr/adam/adam-occds-1-1/datastructures/OCCDS/variables/ONTRTwFL", "title": "On Treatment Record w Flag", "type": "Analysis Variable"}}, "core": "Perm", "description": "This variable is used if there are other analysis needs (e.g., different cut-offs) where on treatment is a key feature of the analysis. \\n If ONTRTwFL is included, ONTRTFL is defined as the overall on-treatment flag.", "label": "On Treatment Record w Flag", "name": "ONTRTwFL", "ordinal": "3", "simpleDatatype": "Char", "valueList": ["Y"]}], "label": "OCCDS Concomitant Medications Indicator Variables", "name": "Concomitant Medications Indicator", "ordinal": "10"}, {"_links": {"parentDatastructure": {"href": "/mdr/adam/adam-occds-1-1/datastructures/OCCDS", "title": "Occurrence Data Structure", "type": "Data Structure"}, "parentProduct": {"href": "/mdr/adam/adam-occds-1-1", "title": "ADaM Structure for Occurrence Data (OCCDS) Version 1.1", "type": "Implementation Guide"}, "self": {"href": "/mdr/adam/adam-occds-1-1/datastructures/OCCDS/varsets/AdverseEventsandConcomitantMedicationsIndicator", "title": "OCCDS Adverse Events and Concomitant Medications Indicator Variables", "type": "Variable Set"}}, "analysisVariables": [{"_links": {"parentDatastructure": {"href": "/mdr/adam/adam-occds-1-1/datastructures/OCCDS", "title": "Occurrence Data Structure", "type": "Data Structure"}, "parentProduct": {"href": "/mdr/adam/adam-occds-1-1", "title": "ADaM Structure for Occurrence Data (OCCDS) Version 1.1", "type": "Implementation Guide"}, "parentVariableSet": {"href": "/mdr/adam/adam-occds-1-1/datastructures/OCCDS/varsets/AdverseEventsandConcomitantMedicationsIndicator", "title": "OCCDS Adverse Events and Concomitant Medications Indicator Variables", "type": "Variable Set"}, "priorVersion": {"href": "/mdr/adam/adam-occds-1-0/datastructures/OCCDS/variables/PREFL", "title": "Pre-treatment Flag", "type": "Analysis Variable"}, "self": {"href": "/mdr/adam/adam-occds-1-1/datastructures/OCCDS/variables/PREFL", "title": "Pre-treatment Flag", "type": "Analysis Variable"}}, "core": "Cond", "description": "Character indicator of whether the observation occurred before the subject started treatment \\n Example derivation: \\n If ASTDT < ADSL.TRTSDT then PREFL=\"Y\" \\n This variable is conditional on whether the concept of pre-treatment is a feature of the study and used in analysis.", "label": "Pre-treatment Flag", "name": "PREFL", "ordinal": "1", "simpleDatatype": "Char", "valueList": ["Y"]}, {"_links": {"parentDatastructure": {"href": "/mdr/adam/adam-occds-1-1/datastructures/OCCDS", "title": "Occurrence Data Structure", "type": "Data Structure"}, "parentProduct": {"href": "/mdr/adam/adam-occds-1-1", "title": "ADaM Structure for Occurrence Data (OCCDS) Version 1.1", "type": "Implementation Guide"}, "parentVariableSet": {"href": "/mdr/adam/adam-occds-1-1/datastructures/OCCDS/varsets/AdverseEventsandConcomitantMedicationsIndicator", "title": "OCCDS Adverse Events and Concomitant Medications Indicator Variables", "type": "Variable Set"}, "priorVersion": {"href": "/mdr/adam/adam-occds-1-0/datastructures/OCCDS/variables/FUPFL", "title": "Follow-up Flag", "type": "Analysis Variable"}, "self": {"href": "/mdr/adam/adam-occds-1-1/datastructures/OCCDS/variables/FUPFL", "title": "Follow-up Flag", "type": "Analysis Variable"}}, "core": "Cond", "description": "Character indicator of whether the observation occurred while the subject was on follow-up \\n Example derivation: \\n If ASTDT > ADSL.TRTEDT then FUPFL=\"Y\" \\n This variable is conditional on whether the concept of follow-up is a feature of the study and used in analysis.", "label": "Follow-up Flag", "name": "FUPFL", "ordinal": "2", "simpleDatatype": "Char", "valueList": ["Y"]}], "label": "OCCDS Adverse Events and Concomitant Medications Indicator Variables", "name": "Adverse Events and Concomitant Medications Indicator", "ordinal": "11"}, {"_links": {"parentDatastructure": {"href": "/mdr/adam/adam-occds-1-1/datastructures/OCCDS", "title": "Occurrence Data Structure", "type": "Data Structure"}, "parentProduct": {"href": "/mdr/adam/adam-occds-1-1", "title": "ADaM Structure for Occurrence Data (OCCDS) Version 1.1", "type": "Implementation Guide"}, "priorVersion": {"href": "/mdr/adam/adam-occds-1-0/datastructures/OCCDS/varsets/OccurrenceFlag", "title": "OCCDS Occurrence Flag Variables", "type": "Variable Set"}, "self": {"href": "/mdr/adam/adam-occds-1-1/datastructures/OCCDS/varsets/OccurrenceFlag", "title": "OCCDS Occurrence Flag Variables", "type": "Variable Set"}}, "analysisVariables": [{"_links": {"parentDatastructure": {"href": "/mdr/adam/adam-occds-1-1/datastructures/OCCDS", "title": "Occurrence Data Structure", "type": "Data Structure"}, "parentProduct": {"href": "/mdr/adam/adam-occds-1-1", "title": "ADaM Structure for Occurrence Data (OCCDS) Version 1.1", "type": "Implementation Guide"}, "parentVariableSet": {"href": "/mdr/adam/adam-occds-1-1/datastructures/OCCDS/varsets/OccurrenceFlag", "title": "OCCDS Occurrence Flag Variables", "type": "Variable Set"}, "priorVersion": {"href": "/mdr/adam/adam-occds-1-0/datastructures/OCCDS/variables/AOCCFL", "title": "1st Occurrence within Subject Flag", "type": "Analysis Variable"}, "self": {"href": "/mdr/adam/adam-occds-1-1/datastructures/OCCDS/variables/AOCCFL", "title": "1st Occurrence within Subject Flag", "type": "Analysis Variable"}}, "core": "Perm", "description": "Character indicator for the first occurrence of any event/intervention/finding within the subject \\n Example derivation: Sort the data in the required order and flag the first treatment emergent record for each subject.", "label": "1st Occurrence within Subject Flag", "name": "AOCCFL", "ordinal": "1", "simpleDatatype": "Char", "valueList": ["Y"]}, {"_links": {"parentDatastructure": {"href": "/mdr/adam/adam-occds-1-1/datastructures/OCCDS", "title": "Occurrence Data Structure", "type": "Data Structure"}, "parentProduct": {"href": "/mdr/adam/adam-occds-1-1", "title": "ADaM Structure for Occurrence Data (OCCDS) Version 1.1", "type": "Implementation Guide"}, "parentVariableSet": {"href": "/mdr/adam/adam-occds-1-1/datastructures/OCCDS/varsets/OccurrenceFlag", "title": "OCCDS Occurrence Flag Variables", "type": "Variable Set"}, "priorVersion": {"href": "/mdr/adam/adam-occds-1-0/datastructures/OCCDS/variables/AOCCPFL", "title": "1st Occurrence of Preferred Term Flag", "type": "Analysis Variable"}, "self": {"href": "/mdr/adam/adam-occds-1-1/datastructures/OCCDS/variables/AOCCPFL", "title": "1st Occurrence of Preferred Term Flag", "type": "Analysis Variable"}}, "core": "Perm", "description": "Character indicator for the first occurrence of the preferred term within the subject \\n Example derivation: Sort the data in the required order and flag the first treatment emergent record for each --DECOD for each subject.", "label": "1st Occurrence of Preferred Term Flag", "name": "AOCCPFL", "ordinal": "2", "simpleDatatype": "Char", "valueList": ["Y"]}, {"_links": {"parentDatastructure": {"href": "/mdr/adam/adam-occds-1-1/datastructures/OCCDS", "title": "Occurrence Data Structure", "type": "Data Structure"}, "parentProduct": {"href": "/mdr/adam/adam-occds-1-1", "title": "ADaM Structure for Occurrence Data (OCCDS) Version 1.1", "type": "Implementation Guide"}, "parentVariableSet": {"href": "/mdr/adam/adam-occds-1-1/datastructures/OCCDS/varsets/OccurrenceFlag", "title": "OCCDS Occurrence Flag Variables", "type": "Variable Set"}, "priorVersion": {"href": "/mdr/adam/adam-occds-1-0/datastructures/OCCDS/variables/AOCCIFL", "title": "1st Max Sev./Int. Occurrence Flag", "type": "Analysis Variable"}, "self": {"href": "/mdr/adam/adam-occds-1-1/datastructures/OCCDS/variables/AOCCIFL", "title": "1st Max Sev./Int. Occurrence Flag", "type": "Analysis Variable"}}, "core": "Perm", "description": "Character indicator for the first occurrence of the event/intervention/finding with the maximum severity/intensity within the subject \\n Example derivation: Sort the data in the required order and flag the first treatment emergent record for maximum severity for each subject.", "label": "1st Max Sev./Int. Occurrence Flag", "name": "AOCCIFL", "ordinal": "3", "simpleDatatype": "Char", "valueList": ["Y"]}, {"_links": {"parentDatastructure": {"href": "/mdr/adam/adam-occds-1-1/datastructures/OCCDS", "title": "Occurrence Data Structure", "type": "Data Structure"}, "parentProduct": {"href": "/mdr/adam/adam-occds-1-1", "title": "ADaM Structure for Occurrence Data (OCCDS) Version 1.1", "type": "Implementation Guide"}, "parentVariableSet": {"href": "/mdr/adam/adam-occds-1-1/datastructures/OCCDS/varsets/OccurrenceFlag", "title": "OCCDS Occurrence Flag Variables", "type": "Variable Set"}, "priorVersion": {"href": "/mdr/adam/adam-occds-1-0/datastructures/OCCDS/variables/AOCCPIFL", "title": "1st Max Sev./Int. Occur Within PT Flag", "type": "Analysis Variable"}, "self": {"href": "/mdr/adam/adam-occds-1-1/datastructures/OCCDS/variables/AOCCPIFL", "title": "1st Max Sev./Int. Occur Within PT Flag", "type": "Analysis Variable"}}, "core": "Perm", "description": "Character indicator for the first occurrence of the maximum severity/intensity within the subject and preferred term \\n Example derivation: Sort the data in the required order and flag the first treatment emergent record for maximum severity within preferred term for each subject.", "label": "1st Max Sev./Int. Occur Within PT Flag", "name": "AOCCPIFL", "ordinal": "4", "simpleDatatype": "Char", "valueList": ["Y"]}, {"_links": {"parentDatastructure": {"href": "/mdr/adam/adam-occds-1-1/datastructures/OCCDS", "title": "Occurrence Data Structure", "type": "Data Structure"}, "parentProduct": {"href": "/mdr/adam/adam-occds-1-1", "title": "ADaM Structure for Occurrence Data (OCCDS) Version 1.1", "type": "Implementation Guide"}, "parentVariableSet": {"href": "/mdr/adam/adam-occds-1-1/datastructures/OCCDS/varsets/OccurrenceFlag", "title": "OCCDS Occurrence Flag Variables", "type": "Variable Set"}, "priorVersion": {"href": "/mdr/adam/adam-occds-1-0/datastructures/OCCDS/variables/AOCCzzFL", "title": "1st Occurrence of ...", "type": "Analysis Variable"}, "self": {"href": "/mdr/adam/adam-occds-1-1/datastructures/OCCDS/variables/AOCCzzFL", "title": "1st Occurrence of ...", "type": "Analysis Variable"}}, "core": "Perm", "description": "Additional flag variables as needed for analysis. Derivation rules for these flags need to be described in the metadata.", "label": "1st Occurrence of ...", "name": "AOCCzzFL", "ordinal": "5", "simpleDatatype": "Char", "valueList": ["Y"]}], "label": "OCCDS Occurrence Flag Variables", "name": "Occurrence Flag", "ordinal": "12"}, {"_links": {"parentDatastructure": {"href": "/mdr/adam/adam-occds-1-1/datastructures/OCCDS", "title": "Occurrence Data Structure", "type": "Data Structure"}, "parentProduct": {"href": "/mdr/adam/adam-occds-1-1", "title": "ADaM Structure for Occurrence Data (OCCDS) Version 1.1", "type": "Implementation Guide"}, "priorVersion": {"href": "/mdr/adam/adam-occds-1-0/datastructures/OCCDS/varsets/MedDRAOccurrenceFlag", "title": "MedDRA Occurrence Flag Variables", "type": "Variable Set"}, "self": {"href": "/mdr/adam/adam-occds-1-1/datastructures/OCCDS/varsets/MedDRAOccurrenceFlag", "title": "OCCDS MedDRA Occurrence Flag Variables", "type": "Variable Set"}}, "analysisVariables": [{"_links": {"parentDatastructure": {"href": "/mdr/adam/adam-occds-1-1/datastructures/OCCDS", "title": "Occurrence Data Structure", "type": "Data Structure"}, "parentProduct": {"href": "/mdr/adam/adam-occds-1-1", "title": "ADaM Structure for Occurrence Data (OCCDS) Version 1.1", "type": "Implementation Guide"}, "parentVariableSet": {"href": "/mdr/adam/adam-occds-1-1/datastructures/OCCDS/varsets/MedDRAOccurrenceFlag", "title": "OCCDS MedDRA Occurrence Flag Variables", "type": "Variable Set"}, "priorVersion": {"href": "/mdr/adam/adam-occds-1-0/datastructures/OCCDS/variables/AOCCSFL", "title": "1st Occurrence of SOC Flag", "type": "Analysis Variable"}, "self": {"href": "/mdr/adam/adam-occds-1-1/datastructures/OCCDS/variables/AOCCSFL", "title": "1st Occurrence of SOC Flag", "type": "Analysis Variable"}}, "core": "Perm", "description": "Character indicator for the first occurrence of the system organ class within the subject \\n Example derivation: Sort the data in the required order and flag the first treatment-emergent record for each body system for each subject.", "label": "1st Occurrence of SOC Flag", "name": "AOCCSFL", "ordinal": "1", "simpleDatatype": "Char", "valueList": ["Y"]}, {"_links": {"parentDatastructure": {"href": "/mdr/adam/adam-occds-1-1/datastructures/OCCDS", "title": "Occurrence Data Structure", "type": "Data Structure"}, "parentProduct": {"href": "/mdr/adam/adam-occds-1-1", "title": "ADaM Structure for Occurrence Data (OCCDS) Version 1.1", "type": "Implementation Guide"}, "parentVariableSet": {"href": "/mdr/adam/adam-occds-1-1/datastructures/OCCDS/varsets/MedDRAOccurrenceFlag", "title": "OCCDS MedDRA Occurrence Flag Variables", "type": "Variable Set"}, "priorVersion": {"href": "/mdr/adam/adam-occds-1-0/datastructures/OCCDS/variables/AOCCSIFL", "title": "1st Max Sev./Int. Occur Within SOC Flag", "type": "Analysis Variable"}, "self": {"href": "/mdr/adam/adam-occds-1-1/datastructures/OCCDS/variables/AOCCSIFL", "title": "1st Max Sev./Int. Occur Within SOC Flag", "type": "Analysis Variable"}}, "core": "Perm", "description": "Character indicator for the first occurrence of the maximum severity/intensity within the subject and system organ class \\n Example derivation: Sort the data in the required order and flag the first treatment-emergent record for maximum severity within body system for each subject.", "label": "1st Max Sev./Int. Occur Within SOC Flag", "name": "AOCCSIFL", "ordinal": "2", "simpleDatatype": "Char", "valueList": ["Y"]}], "label": "OCCDS MedDRA Occurrence Flag Variables", "name": "MedDRA Occurrence Flag", "ordinal": "13"}, {"_links": {"parentDatastructure": {"href": "/mdr/adam/adam-occds-1-1/datastructures/OCCDS", "title": "Occurrence Data Structure", "type": "Data Structure"}, "parentProduct": {"href": "/mdr/adam/adam-occds-1-1", "title": "ADaM Structure for Occurrence Data (OCCDS) Version 1.1", "type": "Implementation Guide"}, "priorVersion": {"href": "/mdr/adam/adam-occds-1-0/datastructures/OCCDS/varsets/TreatmentDose", "title": "Treatment/Dose Variables", "type": "Variable Set"}, "self": {"href": "/mdr/adam/adam-occds-1-1/datastructures/OCCDS/varsets/TreatmentDose", "title": "OCCDS Treatment/Dose Variables", "type": "Variable Set"}}, "analysisVariables": [{"_links": {"parentDatastructure": {"href": "/mdr/adam/adam-occds-1-1/datastructures/OCCDS", "title": "Occurrence Data Structure", "type": "Data Structure"}, "parentProduct": {"href": "/mdr/adam/adam-occds-1-1", "title": "ADaM Structure for Occurrence Data (OCCDS) Version 1.1", "type": "Implementation Guide"}, "parentVariableSet": {"href": "/mdr/adam/adam-occds-1-1/datastructures/OCCDS/varsets/TreatmentDose", "title": "OCCDS Treatment/Dose Variables", "type": "Variable Set"}, "priorVersion": {"href": "/mdr/adam/adam-occds-1-0/datastructures/OCCDS/variables/DOSEON", "title": "Treatment Dose at\nRecord Start", "type": "Analysis Variable"}, "self": {"href": "/mdr/adam/adam-occds-1-1/datastructures/OCCDS/variables/DOSEON", "title": "Treatment Dose at Record Start", "type": "Analysis Variable"}}, "core": "Perm", "description": "Dose received at the point in time of the record start date \\n Example derivation: \\n Obtained from EX.EXDOSE where --STDTC falls between the values of EX.EXSTDTC and EX.EXENDTC", "label": "Treatment Dose at Record Start", "name": "DOSEON", "ordinal": "1", "simpleDatatype": "Num"}, {"_links": {"parentDatastructure": {"href": "/mdr/adam/adam-occds-1-1/datastructures/OCCDS", "title": "Occurrence Data Structure", "type": "Data Structure"}, "parentProduct": {"href": "/mdr/adam/adam-occds-1-1", "title": "ADaM Structure for Occurrence Data (OCCDS) Version 1.1", "type": "Implementation Guide"}, "parentVariableSet": {"href": "/mdr/adam/adam-occds-1-1/datastructures/OCCDS/varsets/TreatmentDose", "title": "OCCDS Treatment/Dose Variables", "type": "Variable Set"}, "priorVersion": {"href": "/mdr/adam/adam-occds-1-0/datastructures/OCCDS/variables/DOSCUMA", "title": "Cumulative Actual\nTreatment Dose", "type": "Analysis Variable"}, "self": {"href": "/mdr/adam/adam-occds-1-1/datastructures/OCCDS/variables/DOSCUMA", "title": "Cumulative Actual Treatment Dose", "type": "Analysis Variable"}}, "core": "Perm", "description": "Cumulative actual study drug dosage at the point in time of the record start date \\n", "label": "Cumulative Actual Treatment Dose", "name": "DOSCUMA", "ordinal": "2", "simpleDatatype": "Num"}, {"_links": {"codelist": [{"href": "/mdr/root/ct/sdtmct/codelists/C71620", "title": "Version-agnostic anchor resource for codelist C71620", "type": "Root Value Domain"}], "parentDatastructure": {"href": "/mdr/adam/adam-occds-1-1/datastructures/OCCDS", "title": "Occurrence Data Structure", "type": "Data Structure"}, "parentProduct": {"href": "/mdr/adam/adam-occds-1-1", "title": "ADaM Structure for Occurrence Data (OCCDS) Version 1.1", "type": "Implementation Guide"}, "parentVariableSet": {"href": "/mdr/adam/adam-occds-1-1/datastructures/OCCDS/varsets/TreatmentDose", "title": "OCCDS Treatment/Dose Variables", "type": "Variable Set"}, "priorVersion": {"href": "/mdr/adam/adam-occds-1-0/datastructures/OCCDS/variables/DOSEU", "title": "Treatment Dose Units", "type": "Analysis Variable"}, "self": {"href": "/mdr/adam/adam-occds-1-1/datastructures/OCCDS/variables/DOSEU", "title": "Treatment Dose Units", "type": "Analysis Variable"}}, "codelistSubmissionValues": ["UNIT"], "core": "Cond", "description": "The units associated with DOSEON and/or DOSCUMA. Conditional on whether DOSEON and/or DOSCUMA are included.", "label": "Treatment Dose Units", "name": "DOSEU", "ordinal": "3", "simpleDatatype": "Char"}], "label": "OCCDS Treatment/Dose Variables", "name": "Treatment/Dose", "ordinal": "14"}, {"_links": {"parentDatastructure": {"href": "/mdr/adam/adam-occds-1-1/datastructures/OCCDS", "title": "Occurrence Data Structure", "type": "Data Structure"}, "parentProduct": {"href": "/mdr/adam/adam-occds-1-1", "title": "ADaM Structure for Occurrence Data (OCCDS) Version 1.1", "type": "Implementation Guide"}, "priorVersion": {"href": "/mdr/adam/adam-occds-1-0/datastructures/OCCDS/varsets/AdverseEventDescriptive", "title": "Adverse Event Descriptive Variables", "type": "Variable Set"}, "self": {"href": "/mdr/adam/adam-occds-1-1/datastructures/OCCDS/varsets/AdverseEventDescriptive", "title": "OCCDS Adverse Event Descriptive Variables", "type": "Variable Set"}}, "analysisVariables": [{"_links": {"codelist": [{"href": "/mdr/root/ct/sdtmct/codelists/C66742", "title": "Version-agnostic anchor resource for codelist C66742", "type": "Root Value Domain"}], "parentDatastructure": {"href": "/mdr/adam/adam-occds-1-1/datastructures/OCCDS", "title": "Occurrence Data Structure", "type": "Data Structure"}, "parentProduct": {"href": "/mdr/adam/adam-occds-1-1", "title": "ADaM Structure for Occurrence Data (OCCDS) Version 1.1", "type": "Implementation Guide"}, "parentVariableSet": {"href": "/mdr/adam/adam-occds-1-1/datastructures/OCCDS/varsets/AdverseEventDescriptive", "title": "OCCDS Adverse Event Descriptive Variables", "type": "Variable Set"}, "self": {"href": "/mdr/adam/adam-occds-1-1/datastructures/OCCDS/variables/--SER", "title": "Serious Event", "type": "Analysis Variable"}}, "codelistSubmissionValues": ["NY"], "core": "Perm", "description": "XX.--SER", "label": "Serious Event", "name": "--SER", "ordinal": "1", "simpleDatatype": "Char"}, {"_links": {"codelist": [{"href": "/mdr/root/ct/sdtmct/codelists/C66769", "title": "Version-agnostic anchor resource for codelist C66769", "type": "Root Value Domain"}, {"href": "/mdr/root/ct/sdtmct/codelists/C165643", "title": "Version-agnostic anchor resource for codelist C165643", "type": "Root Value Domain"}], "parentDatastructure": {"href": "/mdr/adam/adam-occds-1-1/datastructures/OCCDS", "title": "Occurrence Data Structure", "type": "Data Structure"}, "parentProduct": {"href": "/mdr/adam/adam-occds-1-1", "title": "ADaM Structure for Occurrence Data (OCCDS) Version 1.1", "type": "Implementation Guide"}, "parentVariableSet": {"href": "/mdr/adam/adam-occds-1-1/datastructures/OCCDS/varsets/AdverseEventDescriptive", "title": "OCCDS Adverse Event Descriptive Variables", "type": "Variable Set"}, "self": {"href": "/mdr/adam/adam-occds-1-1/datastructures/OCCDS/variables/--SEV", "title": "Severity/Intensity", "type": "Analysis Variable"}}, "codelistSubmissionValues": ["AESEV", "SEVRS"], "core": "Perm", "description": "XX.--SEV \\n For SubClass ADVERSE EVENT, conditional on whether the --SEV variable is in the SDTM AE dataset. Note that either --SEV or --TOXGR should be included in SDTM.", "label": "Severity/Intensity", "name": "--SEV", "ordinal": "2", "simpleDatatype": "Char"}, {"_links": {"parentDatastructure": {"href": "/mdr/adam/adam-occds-1-1/datastructures/OCCDS", "title": "Occurrence Data Structure", "type": "Data Structure"}, "parentProduct": {"href": "/mdr/adam/adam-occds-1-1", "title": "ADaM Structure for Occurrence Data (OCCDS) Version 1.1", "type": "Implementation Guide"}, "parentVariableSet": {"href": "/mdr/adam/adam-occds-1-1/datastructures/OCCDS/varsets/AdverseEventDescriptive", "title": "OCCDS Adverse Event Descriptive Variables", "type": "Variable Set"}, "self": {"href": "/mdr/adam/adam-occds-1-1/datastructures/OCCDS/variables/--SEVN", "title": "Severity/Intensity (N)", "type": "Analysis Variable"}}, "core": "Perm", "description": "Code XX.--SEV to numeric \\n Low intensity should correspond to low value", "label": "Severity/Intensity (N)", "name": "--SEVN", "ordinal": "3", "simpleDatatype": "Num", "valueList": ["1", "2", "3"]}, {"_links": {"parentDatastructure": {"href": "/mdr/adam/adam-occds-1-1/datastructures/OCCDS", "title": "Occurrence Data Structure", "type": "Data Structure"}, "parentProduct": {"href": "/mdr/adam/adam-occds-1-1", "title": "ADaM Structure for Occurrence Data (OCCDS) Version 1.1", "type": "Implementation Guide"}, "parentVariableSet": {"href": "/mdr/adam/adam-occds-1-1/datastructures/OCCDS/varsets/AdverseEventDescriptive", "title": "OCCDS Adverse Event Descriptive Variables", "type": "Variable Set"}, "priorVersion": {"href": "/mdr/adam/adam-occds-1-0/datastructures/OCCDS/variables/ASEV", "title": "Analysis Severity/Intensity", "type": "Analysis Variable"}, "self": {"href": "/mdr/adam/adam-occds-1-1/datastructures/OCCDS/variables/ASEV", "title": "Analysis Severity/Intensity", "type": "Analysis Variable"}}, "core": "Perm", "description": "Apply imputation rules for missing severity of adverse events as specified in the SAP or metadata. May change case of text, such as from all uppercase in --SEV to mixed case in ASEV.", "label": "Analysis Severity/Intensity", "name": "ASEV", "ordinal": "4", "simpleDatatype": "Char"}, {"_links": {"parentDatastructure": {"href": "/mdr/adam/adam-occds-1-1/datastructures/OCCDS", "title": "Occurrence Data Structure", "type": "Data Structure"}, "parentProduct": {"href": "/mdr/adam/adam-occds-1-1", "title": "ADaM Structure for Occurrence Data (OCCDS) Version 1.1", "type": "Implementation Guide"}, "parentVariableSet": {"href": "/mdr/adam/adam-occds-1-1/datastructures/OCCDS/varsets/AdverseEventDescriptive", "title": "OCCDS Adverse Event Descriptive Variables", "type": "Variable Set"}, "priorVersion": {"href": "/mdr/adam/adam-occds-1-0/datastructures/OCCDS/variables/ASEVN", "title": "Analysis Severity/Intensity (N)", "type": "Analysis Variable"}, "self": {"href": "/mdr/adam/adam-occds-1-1/datastructures/OCCDS/variables/ASEVN", "title": "Analysis Severity/Intensity (N)", "type": "Analysis Variable"}}, "core": "Perm", "description": "Code ASEV to numeric \\n Low intensity should correspond to low value", "label": "Analysis Severity/Intensity (N)", "name": "ASEVN", "ordinal": "5", "simpleDatatype": "Num", "valueList": ["1", "2", "3"]}, {"_links": {"parentDatastructure": {"href": "/mdr/adam/adam-occds-1-1/datastructures/OCCDS", "title": "Occurrence Data Structure", "type": "Data Structure"}, "parentProduct": {"href": "/mdr/adam/adam-occds-1-1", "title": "ADaM Structure for Occurrence Data (OCCDS) Version 1.1", "type": "Implementation Guide"}, "parentVariableSet": {"href": "/mdr/adam/adam-occds-1-1/datastructures/OCCDS/varsets/AdverseEventDescriptive", "title": "OCCDS Adverse Event Descriptive Variables", "type": "Variable Set"}, "priorVersion": {"href": "/mdr/adam/adam-occds-1-0/datastructures/OCCDS/variables/SEVGRy", "title": "Pooled Severity Group y", "type": "Analysis Variable"}, "self": {"href": "/mdr/adam/adam-occds-1-1/datastructures/OCCDS/variables/SEVGRy", "title": "Pooled Severity Group y", "type": "Analysis Variable"}}, "core": "Perm", "description": "Pooled grouping of AE severity for analysis (e.g., mild/moderate, severe)", "label": "Pooled Severity Group y", "name": "SEVGRy", "ordinal": "6", "simpleDatatype": "Char"}, {"_links": {"parentDatastructure": {"href": "/mdr/adam/adam-occds-1-1/datastructures/OCCDS", "title": "Occurrence Data Structure", "type": "Data Structure"}, "parentProduct": {"href": "/mdr/adam/adam-occds-1-1", "title": "ADaM Structure for Occurrence Data (OCCDS) Version 1.1", "type": "Implementation Guide"}, "parentVariableSet": {"href": "/mdr/adam/adam-occds-1-1/datastructures/OCCDS/varsets/AdverseEventDescriptive", "title": "OCCDS Adverse Event Descriptive Variables", "type": "Variable Set"}, "priorVersion": {"href": "/mdr/adam/adam-occds-1-0/datastructures/OCCDS/variables/SEVGRyN", "title": "Pooled Severity Group y (N)", "type": "Analysis Variable"}, "self": {"href": "/mdr/adam/adam-occds-1-1/datastructures/OCCDS/variables/SEVGRyN", "title": "Pooled Severity Group y (N)", "type": "Analysis Variable"}}, "core": "Perm", "description": "Code SEVGRy to numeric \\n Low intensity should correspond to low value", "label": "Pooled Severity Group y (N)", "name": "SEVGRyN", "ordinal": "7", "simpleDatatype": "Num"}, {"_links": {"parentDatastructure": {"href": "/mdr/adam/adam-occds-1-1/datastructures/OCCDS", "title": "Occurrence Data Structure", "type": "Data Structure"}, "parentProduct": {"href": "/mdr/adam/adam-occds-1-1", "title": "ADaM Structure for Occurrence Data (OCCDS) Version 1.1", "type": "Implementation Guide"}, "parentVariableSet": {"href": "/mdr/adam/adam-occds-1-1/datastructures/OCCDS/varsets/AdverseEventDescriptive", "title": "OCCDS Adverse Event Descriptive Variables", "type": "Variable Set"}, "self": {"href": "/mdr/adam/adam-occds-1-1/datastructures/OCCDS/variables/--REL", "title": "Causality", "type": "Analysis Variable"}}, "core": "Perm", "description": "XX.--REL", "label": "Causality", "name": "--REL", "ordinal": "8", "simpleDatatype": "Char"}, {"_links": {"parentDatastructure": {"href": "/mdr/adam/adam-occds-1-1/datastructures/OCCDS", "title": "Occurrence Data Structure", "type": "Data Structure"}, "parentProduct": {"href": "/mdr/adam/adam-occds-1-1", "title": "ADaM Structure for Occurrence Data (OCCDS) Version 1.1", "type": "Implementation Guide"}, "parentVariableSet": {"href": "/mdr/adam/adam-occds-1-1/datastructures/OCCDS/varsets/AdverseEventDescriptive", "title": "OCCDS Adverse Event Descriptive Variables", "type": "Variable Set"}, "self": {"href": "/mdr/adam/adam-occds-1-1/datastructures/OCCDS/variables/--RELN", "title": "Causality (N)", "type": "Analysis Variable"}}, "core": "Perm", "description": "Code XX.--REL to numeric \\n Low relation should correspond to low value", "label": "Causality (N)", "name": "--RELN", "ordinal": "9", "simpleDatatype": "Num"}, {"_links": {"parentDatastructure": {"href": "/mdr/adam/adam-occds-1-1/datastructures/OCCDS", "title": "Occurrence Data Structure", "type": "Data Structure"}, "parentProduct": {"href": "/mdr/adam/adam-occds-1-1", "title": "ADaM Structure for Occurrence Data (OCCDS) Version 1.1", "type": "Implementation Guide"}, "parentVariableSet": {"href": "/mdr/adam/adam-occds-1-1/datastructures/OCCDS/varsets/AdverseEventDescriptive", "title": "OCCDS Adverse Event Descriptive Variables", "type": "Variable Set"}, "priorVersion": {"href": "/mdr/adam/adam-occds-1-0/datastructures/OCCDS/variables/AREL", "title": "Analysis Causality", "type": "Analysis Variable"}, "self": {"href": "/mdr/adam/adam-occds-1-1/datastructures/OCCDS/variables/AREL", "title": "Analysis Causality", "type": "Analysis Variable"}}, "core": "Perm", "description": "Apply imputation rules for missing causality of study drug as specified in the SAP or metadata. May change case of text, such as from all uppercase in --REL to mixed case in AREL.", "label": "Analysis Causality", "name": "AREL", "ordinal": "10", "simpleDatatype": "Char"}, {"_links": {"parentDatastructure": {"href": "/mdr/adam/adam-occds-1-1/datastructures/OCCDS", "title": "Occurrence Data Structure", "type": "Data Structure"}, "parentProduct": {"href": "/mdr/adam/adam-occds-1-1", "title": "ADaM Structure for Occurrence Data (OCCDS) Version 1.1", "type": "Implementation Guide"}, "parentVariableSet": {"href": "/mdr/adam/adam-occds-1-1/datastructures/OCCDS/varsets/AdverseEventDescriptive", "title": "OCCDS Adverse Event Descriptive Variables", "type": "Variable Set"}, "priorVersion": {"href": "/mdr/adam/adam-occds-1-0/datastructures/OCCDS/variables/ARELN", "title": "Analysis Causality (N)", "type": "Analysis Variable"}, "self": {"href": "/mdr/adam/adam-occds-1-1/datastructures/OCCDS/variables/ARELN", "title": "Analysis Causality (N)", "type": "Analysis Variable"}}, "core": "Perm", "description": "Code AREL to numeric", "label": "Analysis Causality (N)", "name": "ARELN", "ordinal": "11", "simpleDatatype": "Num"}, {"_links": {"parentDatastructure": {"href": "/mdr/adam/adam-occds-1-1/datastructures/OCCDS", "title": "Occurrence Data Structure", "type": "Data Structure"}, "parentProduct": {"href": "/mdr/adam/adam-occds-1-1", "title": "ADaM Structure for Occurrence Data (OCCDS) Version 1.1", "type": "Implementation Guide"}, "parentVariableSet": {"href": "/mdr/adam/adam-occds-1-1/datastructures/OCCDS/varsets/AdverseEventDescriptive", "title": "OCCDS Adverse Event Descriptive Variables", "type": "Variable Set"}, "priorVersion": {"href": "/mdr/adam/adam-occds-1-0/datastructures/OCCDS/variables/RELGRy", "title": "Pooled Causality Group y", "type": "Analysis Variable"}, "self": {"href": "/mdr/adam/adam-occds-1-1/datastructures/OCCDS/variables/RELGRy", "title": "Pooled Causality Group y", "type": "Analysis Variable"}}, "core": "Perm", "description": "Pooled grouping of causality of study drug for analysis (e.g. related, not related)", "label": "Pooled Causality Group y", "name": "RELGRy", "ordinal": "12", "simpleDatatype": "Char"}, {"_links": {"parentDatastructure": {"href": "/mdr/adam/adam-occds-1-1/datastructures/OCCDS", "title": "Occurrence Data Structure", "type": "Data Structure"}, "parentProduct": {"href": "/mdr/adam/adam-occds-1-1", "title": "ADaM Structure for Occurrence Data (OCCDS) Version 1.1", "type": "Implementation Guide"}, "parentVariableSet": {"href": "/mdr/adam/adam-occds-1-1/datastructures/OCCDS/varsets/AdverseEventDescriptive", "title": "OCCDS Adverse Event Descriptive Variables", "type": "Variable Set"}, "priorVersion": {"href": "/mdr/adam/adam-occds-1-0/datastructures/OCCDS/variables/RELGRyN", "title": "Pooled Causality Group y (N)", "type": "Analysis Variable"}, "self": {"href": "/mdr/adam/adam-occds-1-1/datastructures/OCCDS/variables/RELGRyN", "title": "Pooled Causality Group y (N)", "type": "Analysis Variable"}}, "core": "Perm", "description": "Code of RELGRy to numeric \\n Low relation should correspond to low value", "label": "Pooled Causality Group y (N)", "name": "RELGRyN", "ordinal": "13", "simpleDatatype": "Num"}, {"_links": {"parentDatastructure": {"href": "/mdr/adam/adam-occds-1-1/datastructures/OCCDS", "title": "Occurrence Data Structure", "type": "Data Structure"}, "parentProduct": {"href": "/mdr/adam/adam-occds-1-1", "title": "ADaM Structure for Occurrence Data (OCCDS) Version 1.1", "type": "Implementation Guide"}, "parentVariableSet": {"href": "/mdr/adam/adam-occds-1-1/datastructures/OCCDS/varsets/AdverseEventDescriptive", "title": "OCCDS Adverse Event Descriptive Variables", "type": "Variable Set"}, "self": {"href": "/mdr/adam/adam-occds-1-1/datastructures/OCCDS/variables/--TOXGR", "title": "Standard Toxicity Grade", "type": "Analysis Variable"}}, "core": "Perm", "description": "XX.--TOXGR \\n For SubClass ADVERSE EVENT, conditional on whether the --TOXGR variable is in the SDTM AE dataset. Note that either --SEV or --TOXGR should be included in SDTM.", "label": "Standard Toxicity Grade", "name": "--TOXGR", "ordinal": "14", "simpleDatatype": "Char"}, {"_links": {"parentDatastructure": {"href": "/mdr/adam/adam-occds-1-1/datastructures/OCCDS", "title": "Occurrence Data Structure", "type": "Data Structure"}, "parentProduct": {"href": "/mdr/adam/adam-occds-1-1", "title": "ADaM Structure for Occurrence Data (OCCDS) Version 1.1", "type": "Implementation Guide"}, "parentVariableSet": {"href": "/mdr/adam/adam-occds-1-1/datastructures/OCCDS/varsets/AdverseEventDescriptive", "title": "OCCDS Adverse Event Descriptive Variables", "type": "Variable Set"}, "self": {"href": "/mdr/adam/adam-occds-1-1/datastructures/OCCDS/variables/--TOXGRN", "title": "Standard Toxicity Grade (N)", "type": "Analysis Variable"}}, "core": "Perm", "description": "Code --TOXGR to numeric \\n Low toxicity should correspond to low value", "label": "Standard Toxicity Grade (N)", "name": "--TOXGRN", "ordinal": "15", "simpleDatatype": "Num"}, {"_links": {"parentDatastructure": {"href": "/mdr/adam/adam-occds-1-1/datastructures/OCCDS", "title": "Occurrence Data Structure", "type": "Data Structure"}, "parentProduct": {"href": "/mdr/adam/adam-occds-1-1", "title": "ADaM Structure for Occurrence Data (OCCDS) Version 1.1", "type": "Implementation Guide"}, "parentVariableSet": {"href": "/mdr/adam/adam-occds-1-1/datastructures/OCCDS/varsets/AdverseEventDescriptive", "title": "OCCDS Adverse Event Descriptive Variables", "type": "Variable Set"}, "priorVersion": {"href": "/mdr/adam/adam-occds-1-0/datastructures/OCCDS/variables/ATOXGR", "title": "Analysis Toxicity Grade", "type": "Analysis Variable"}, "self": {"href": "/mdr/adam/adam-occds-1-1/datastructures/OCCDS/variables/ATOXGR", "title": "Analysis Toxicity Grade", "type": "Analysis Variable"}}, "core": "Perm", "description": "Toxicity grade for analysis. May be based on --TOXGR or an imputed or assigned value. May change case of text, such as from all uppercase in --TOXGR to mixed case in ATOXGR.", "label": "Analysis Toxicity Grade", "name": "ATOXGR", "ordinal": "16", "simpleDatatype": "Char"}, {"_links": {"parentDatastructure": {"href": "/mdr/adam/adam-occds-1-1/datastructures/OCCDS", "title": "Occurrence Data Structure", "type": "Data Structure"}, "parentProduct": {"href": "/mdr/adam/adam-occds-1-1", "title": "ADaM Structure for Occurrence Data (OCCDS) Version 1.1", "type": "Implementation Guide"}, "parentVariableSet": {"href": "/mdr/adam/adam-occds-1-1/datastructures/OCCDS/varsets/AdverseEventDescriptive", "title": "OCCDS Adverse Event Descriptive Variables", "type": "Variable Set"}, "priorVersion": {"href": "/mdr/adam/adam-occds-1-0/datastructures/OCCDS/variables/ATOXGRN", "title": "Analysis Toxicity Grade (N)", "type": "Analysis Variable"}, "self": {"href": "/mdr/adam/adam-occds-1-1/datastructures/OCCDS/variables/ATOXGRN", "title": "Analysis Toxicity Grade (N)", "type": "Analysis Variable"}}, "core": "Perm", "description": "Code ATOXGR to numeric \\n Low toxicity should correspond to low value", "label": "Analysis Toxicity Grade (N)", "name": "ATOXGRN", "ordinal": "17", "simpleDatatype": "Num"}, {"_links": {"parentDatastructure": {"href": "/mdr/adam/adam-occds-1-1/datastructures/OCCDS", "title": "Occurrence Data Structure", "type": "Data Structure"}, "parentProduct": {"href": "/mdr/adam/adam-occds-1-1", "title": "ADaM Structure for Occurrence Data (OCCDS) Version 1.1", "type": "Implementation Guide"}, "parentVariableSet": {"href": "/mdr/adam/adam-occds-1-1/datastructures/OCCDS/varsets/AdverseEventDescriptive", "title": "OCCDS Adverse Event Descriptive Variables", "type": "Variable Set"}, "priorVersion": {"href": "/mdr/adam/adam-occds-1-0/datastructures/OCCDS/variables/TOXGGRy", "title": "Pooled Toxicity Grade Group y", "type": "Analysis Variable"}, "self": {"href": "/mdr/adam/adam-occds-1-1/datastructures/OCCDS/variables/TOXGGRy", "title": "Pooled Toxicity Grade Group y", "type": "Analysis Variable"}}, "core": "Perm", "description": "Pooled grouping of toxicity grade for analysis", "label": "Pooled Toxicity Grade Group y", "name": "TOXGGRy", "ordinal": "18", "simpleDatatype": "Char"}, {"_links": {"parentDatastructure": {"href": "/mdr/adam/adam-occds-1-1/datastructures/OCCDS", "title": "Occurrence Data Structure", "type": "Data Structure"}, "parentProduct": {"href": "/mdr/adam/adam-occds-1-1", "title": "ADaM Structure for Occurrence Data (OCCDS) Version 1.1", "type": "Implementation Guide"}, "parentVariableSet": {"href": "/mdr/adam/adam-occds-1-1/datastructures/OCCDS/varsets/AdverseEventDescriptive", "title": "OCCDS Adverse Event Descriptive Variables", "type": "Variable Set"}, "priorVersion": {"href": "/mdr/adam/adam-occds-1-0/datastructures/OCCDS/variables/TOXGGRyN", "title": "Pooled Toxicity Grade y (N)", "type": "Analysis Variable"}, "self": {"href": "/mdr/adam/adam-occds-1-1/datastructures/OCCDS/variables/TOXGGRyN", "title": "Pooled Toxicity Grade Group y (N)", "type": "Analysis Variable"}}, "core": "Perm", "description": "Code of TOXGGRy to numeric \\n Low toxicity should correspond to low value", "label": "Pooled Toxicity Grade Group y (N)", "name": "TOXGGRyN", "ordinal": "19", "simpleDatatype": "Num"}, {"_links": {"codelist": [{"href": "/mdr/root/ct/sdtmct/codelists/C66767", "title": "Version-agnostic anchor resource for codelist C66767", "type": "Root Value Domain"}], "parentDatastructure": {"href": "/mdr/adam/adam-occds-1-1/datastructures/OCCDS", "title": "Occurrence Data Structure", "type": "Data Structure"}, "parentProduct": {"href": "/mdr/adam/adam-occds-1-1", "title": "ADaM Structure for Occurrence Data (OCCDS) Version 1.1", "type": "Implementation Guide"}, "parentVariableSet": {"href": "/mdr/adam/adam-occds-1-1/datastructures/OCCDS/varsets/AdverseEventDescriptive", "title": "OCCDS Adverse Event Descriptive Variables", "type": "Variable Set"}, "self": {"href": "/mdr/adam/adam-occds-1-1/datastructures/OCCDS/variables/--ACN", "title": "Action Taken with Study Treatment", "type": "Analysis Variable"}}, "codelistSubmissionValues": ["ACN"], "core": "Perm", "description": "XX.--ACN \\n Required if XX.--ACN is present and populated", "label": "Action Taken with Study Treatment", "name": "--ACN", "ordinal": "20", "simpleDatatype": "Char"}], "label": "OCCDS Adverse Event Descriptive Variables", "name": "Adverse Event Descriptive", "ordinal": "15"}, {"_links": {"parentDatastructure": {"href": "/mdr/adam/adam-occds-1-1/datastructures/OCCDS", "title": "Occurrence Data Structure", "type": "Data Structure"}, "parentProduct": {"href": "/mdr/adam/adam-occds-1-1", "title": "ADaM Structure for Occurrence Data (OCCDS) Version 1.1", "type": "Implementation Guide"}, "priorVersion": {"href": "/mdr/adam/adam-occds-1-0/datastructures/OCCDS/varsets/ConcomitantMedicationsDescriptive", "title": "Concomitant Medications Descriptive Variables", "type": "Variable Set"}, "self": {"href": "/mdr/adam/adam-occds-1-1/datastructures/OCCDS/varsets/ConcomitantMedicationsDescriptive", "title": "OCCDS Concomitant Medications Descriptive Variables", "type": "Variable Set"}}, "analysisVariables": [{"_links": {"parentDatastructure": {"href": "/mdr/adam/adam-occds-1-1/datastructures/OCCDS", "title": "Occurrence Data Structure", "type": "Data Structure"}, "parentProduct": {"href": "/mdr/adam/adam-occds-1-1", "title": "ADaM Structure for Occurrence Data (OCCDS) Version 1.1", "type": "Implementation Guide"}, "parentVariableSet": {"href": "/mdr/adam/adam-occds-1-1/datastructures/OCCDS/varsets/ConcomitantMedicationsDescriptive", "title": "OCCDS Concomitant Medications Descriptive Variables", "type": "Variable Set"}, "self": {"href": "/mdr/adam/adam-occds-1-1/datastructures/OCCDS/variables/--STAT", "title": "Completion Status", "type": "Analysis Variable"}}, "core": "Perm", "description": "XX.--STAT", "label": "Completion Status", "name": "--STAT", "ordinal": "1", "simpleDatatype": "Char"}, {"_links": {"parentDatastructure": {"href": "/mdr/adam/adam-occds-1-1/datastructures/OCCDS", "title": "Occurrence Data Structure", "type": "Data Structure"}, "parentProduct": {"href": "/mdr/adam/adam-occds-1-1", "title": "ADaM Structure for Occurrence Data (OCCDS) Version 1.1", "type": "Implementation Guide"}, "parentVariableSet": {"href": "/mdr/adam/adam-occds-1-1/datastructures/OCCDS/varsets/ConcomitantMedicationsDescriptive", "title": "OCCDS Concomitant Medications Descriptive Variables", "type": "Variable Set"}, "self": {"href": "/mdr/adam/adam-occds-1-1/datastructures/OCCDS/variables/--INDC", "title": "Indication", "type": "Analysis Variable"}}, "core": "Perm", "description": "XX.--INDC", "label": "Indication", "name": "--INDC", "ordinal": "2", "simpleDatatype": "Char"}, {"_links": {"parentDatastructure": {"href": "/mdr/adam/adam-occds-1-1/datastructures/OCCDS", "title": "Occurrence Data Structure", "type": "Data Structure"}, "parentProduct": {"href": "/mdr/adam/adam-occds-1-1", "title": "ADaM Structure for Occurrence Data (OCCDS) Version 1.1", "type": "Implementation Guide"}, "parentVariableSet": {"href": "/mdr/adam/adam-occds-1-1/datastructures/OCCDS/varsets/ConcomitantMedicationsDescriptive", "title": "OCCDS Concomitant Medications Descriptive Variables", "type": "Variable Set"}, "self": {"href": "/mdr/adam/adam-occds-1-1/datastructures/OCCDS/variables/--DOSE", "title": "Dose per Administration", "type": "Analysis Variable"}}, "core": "Perm", "description": "XX.--DOSE", "label": "Dose per Administration", "name": "--DOSE", "ordinal": "3", "simpleDatatype": "Num"}, {"_links": {"parentDatastructure": {"href": "/mdr/adam/adam-occds-1-1/datastructures/OCCDS", "title": "Occurrence Data Structure", "type": "Data Structure"}, "parentProduct": {"href": "/mdr/adam/adam-occds-1-1", "title": "ADaM Structure for Occurrence Data (OCCDS) Version 1.1", "type": "Implementation Guide"}, "parentVariableSet": {"href": "/mdr/adam/adam-occds-1-1/datastructures/OCCDS/varsets/ConcomitantMedicationsDescriptive", "title": "OCCDS Concomitant Medications Descriptive Variables", "type": "Variable Set"}, "self": {"href": "/mdr/adam/adam-occds-1-1/datastructures/OCCDS/variables/--DOSFRM", "title": "Dose Form", "type": "Analysis Variable"}}, "core": "Perm", "description": "XX.--DOSFRM", "label": "Dose Form", "name": "--DOSFRM", "ordinal": "4", "simpleDatatype": "Char"}, {"_links": {"parentDatastructure": {"href": "/mdr/adam/adam-occds-1-1/datastructures/OCCDS", "title": "Occurrence Data Structure", "type": "Data Structure"}, "parentProduct": {"href": "/mdr/adam/adam-occds-1-1", "title": "ADaM Structure for Occurrence Data (OCCDS) Version 1.1", "type": "Implementation Guide"}, "parentVariableSet": {"href": "/mdr/adam/adam-occds-1-1/datastructures/OCCDS/varsets/ConcomitantMedicationsDescriptive", "title": "OCCDS Concomitant Medications Descriptive Variables", "type": "Variable Set"}, "self": {"href": "/mdr/adam/adam-occds-1-1/datastructures/OCCDS/variables/--DOSRGM", "title": "Intended Dose Regimen", "type": "Analysis Variable"}}, "core": "Perm", "description": "XX.--DOSRGM", "label": "Intended Dose Regimen", "name": "--DOSRGM", "ordinal": "5", "simpleDatatype": "Char"}, {"_links": {"parentDatastructure": {"href": "/mdr/adam/adam-occds-1-1/datastructures/OCCDS", "title": "Occurrence Data Structure", "type": "Data Structure"}, "parentProduct": {"href": "/mdr/adam/adam-occds-1-1", "title": "ADaM Structure for Occurrence Data (OCCDS) Version 1.1", "type": "Implementation Guide"}, "parentVariableSet": {"href": "/mdr/adam/adam-occds-1-1/datastructures/OCCDS/varsets/ConcomitantMedicationsDescriptive", "title": "OCCDS Concomitant Medications Descriptive Variables", "type": "Variable Set"}, "self": {"href": "/mdr/adam/adam-occds-1-1/datastructures/OCCDS/variables/--ROUTE", "title": "Route of Administration", "type": "Analysis Variable"}}, "core": "Perm", "description": "XX.--ROUTE", "label": "Route of Administration", "name": "--ROUTE", "ordinal": "6", "simpleDatatype": "Char"}], "label": "OCCDS Concomitant Medications Descriptive Variables", "name": "Concomitant Medications Descriptive", "ordinal": "16"}, {"_links": {"parentDatastructure": {"href": "/mdr/adam/adam-occds-1-1/datastructures/OCCDS", "title": "Occurrence Data Structure", "type": "Data Structure"}, "parentProduct": {"href": "/mdr/adam/adam-occds-1-1", "title": "ADaM Structure for Occurrence Data (OCCDS) Version 1.1", "type": "Implementation Guide"}, "priorVersion": {"href": "/mdr/adam/adam-occds-1-0/datastructures/OCCDS/varsets/StandardizedMedDRAQuery", "title": "Standardized MedDRA Query Variables", "type": "Variable Set"}, "self": {"href": "/mdr/adam/adam-occds-1-1/datastructures/OCCDS/varsets/StandardizedMedDRAQuery", "title": "OCCDS Standardized MedDRA Query Variables", "type": "Variable Set"}}, "analysisVariables": [{"_links": {"parentDatastructure": {"href": "/mdr/adam/adam-occds-1-1/datastructures/OCCDS", "title": "Occurrence Data Structure", "type": "Data Structure"}, "parentProduct": {"href": "/mdr/adam/adam-occds-1-1", "title": "ADaM Structure for Occurrence Data (OCCDS) Version 1.1", "type": "Implementation Guide"}, "parentVariableSet": {"href": "/mdr/adam/adam-occds-1-1/datastructures/OCCDS/varsets/StandardizedMedDRAQuery", "title": "OCCDS Standardized MedDRA Query Variables", "type": "Variable Set"}, "priorVersion": {"href": "/mdr/adam/adam-occds-1-0/datastructures/OCCDS/variables/SMQzzNAM", "title": "SMQ zz Name", "type": "Analysis Variable"}, "self": {"href": "/mdr/adam/adam-occds-1-1/datastructures/OCCDS/variables/SMQzzNAM", "title": "SMQ zz Name", "type": "Analysis Variable"}}, "core": "Cond", "description": "The Standardized MedDRA Query name. Would be blank for terms that are not in the SMQ. Therefore this variable could be blank for all records if no terms within the study were included in the SMQ. \\n Conditional on whether SMQ analysis is done", "label": "SMQ zz Name", "name": "SMQzzNAM", "ordinal": "1", "simpleDatatype": "Char"}, {"_links": {"parentDatastructure": {"href": "/mdr/adam/adam-occds-1-1/datastructures/OCCDS", "title": "Occurrence Data Structure", "type": "Data Structure"}, "parentProduct": {"href": "/mdr/adam/adam-occds-1-1", "title": "ADaM Structure for Occurrence Data (OCCDS) Version 1.1", "type": "Implementation Guide"}, "parentVariableSet": {"href": "/mdr/adam/adam-occds-1-1/datastructures/OCCDS/varsets/StandardizedMedDRAQuery", "title": "OCCDS Standardized MedDRA Query Variables", "type": "Variable Set"}, "priorVersion": {"href": "/mdr/adam/adam-occds-1-0/datastructures/OCCDS/variables/SMQzzCD", "title": "SMQ zz Code", "type": "Analysis Variable"}, "self": {"href": "/mdr/adam/adam-occds-1-1/datastructures/OCCDS/variables/SMQzzCD", "title": "SMQ zz Code", "type": "Analysis Variable"}}, "core": "Perm", "description": "The standardized MedDRA queries number code", "label": "SMQ zz Code", "name": "SMQzzCD", "ordinal": "2", "simpleDatatype": "Num"}, {"_links": {"parentDatastructure": {"href": "/mdr/adam/adam-occds-1-1/datastructures/OCCDS", "title": "Occurrence Data Structure", "type": "Data Structure"}, "parentProduct": {"href": "/mdr/adam/adam-occds-1-1", "title": "ADaM Structure for Occurrence Data (OCCDS) Version 1.1", "type": "Implementation Guide"}, "parentVariableSet": {"href": "/mdr/adam/adam-occds-1-1/datastructures/OCCDS/varsets/StandardizedMedDRAQuery", "title": "OCCDS Standardized MedDRA Query Variables", "type": "Variable Set"}, "priorVersion": {"href": "/mdr/adam/adam-occds-1-0/datastructures/OCCDS/variables/SMQzzSC", "title": "SMQ zz Scope", "type": "Analysis Variable"}, "self": {"href": "/mdr/adam/adam-occds-1-1/datastructures/OCCDS/variables/SMQzzSC", "title": "SMQ zz Scope", "type": "Analysis Variable"}}, "core": "Cond", "description": "The search strategy for SMQs can be narrow or broad. The preferred terms that are narrow in scope have high specificity for identifying events of interest, whereas the broad terms have high sensitivity. By definition, all narrow terms are also considered within the broad scope. Therefore, to summarize all broad terms, terms with either narrow or broad would be considered. Will be null for terms that do not meet the criteria. \\n Conditional on whether SMQ analysis is done", "label": "SMQ zz Scope", "name": "SMQzzSC", "ordinal": "3", "simpleDatatype": "Char", "valueList": ["BROAD", "NARROW"]}, {"_links": {"parentDatastructure": {"href": "/mdr/adam/adam-occds-1-1/datastructures/OCCDS", "title": "Occurrence Data Structure", "type": "Data Structure"}, "parentProduct": {"href": "/mdr/adam/adam-occds-1-1", "title": "ADaM Structure for Occurrence Data (OCCDS) Version 1.1", "type": "Implementation Guide"}, "parentVariableSet": {"href": "/mdr/adam/adam-occds-1-1/datastructures/OCCDS/varsets/StandardizedMedDRAQuery", "title": "OCCDS Standardized MedDRA Query Variables", "type": "Variable Set"}, "priorVersion": {"href": "/mdr/adam/adam-occds-1-0/datastructures/OCCDS/variables/SMQzzSCN", "title": "SMQ zz Scope (N)", "type": "Analysis Variable"}, "self": {"href": "/mdr/adam/adam-occds-1-1/datastructures/OCCDS/variables/SMQzzSCN", "title": "SMQ zz Scope (N)", "type": "Analysis Variable"}}, "core": "Perm", "description": "Will be null for terms that do not meet the criteria", "label": "SMQ zz Scope (N)", "name": "SMQzzSCN", "ordinal": "4", "simpleDatatype": "Num", "valueList": ["1", "2"]}, {"_links": {"parentDatastructure": {"href": "/mdr/adam/adam-occds-1-1/datastructures/OCCDS", "title": "Occurrence Data Structure", "type": "Data Structure"}, "parentProduct": {"href": "/mdr/adam/adam-occds-1-1", "title": "ADaM Structure for Occurrence Data (OCCDS) Version 1.1", "type": "Implementation Guide"}, "parentVariableSet": {"href": "/mdr/adam/adam-occds-1-1/datastructures/OCCDS/varsets/StandardizedMedDRAQuery", "title": "OCCDS Standardized MedDRA Query Variables", "type": "Variable Set"}, "priorVersion": {"href": "/mdr/adam/adam-occds-1-0/datastructures/OCCDS/variables/CQzzNAM", "title": "Customized Query zz Name", "type": "Analysis Variable"}, "self": {"href": "/mdr/adam/adam-occds-1-1/datastructures/OCCDS/variables/CQzzNAM", "title": "Customized Query zz Name", "type": "Analysis Variable"}}, "core": "Cond", "description": "The CQ name or name of the adverse event of special interest category based on a grouping of terms. Would be blank for terms that are not in the CQ. \\n Conditional on whether CQ analysis is done \\n Examples: \"DERMATOLOGICAL EVENTS\" \"CARDIAC EVENTS\", \"IARS (INFUSION ASSOCIATED REACTIONS)\"", "label": "Customized Query zz Name", "name": "CQzzNAM", "ordinal": "5", "simpleDatatype": "Char"}, {"_links": {"parentDatastructure": {"href": "/mdr/adam/adam-occds-1-1/datastructures/OCCDS", "title": "Occurrence Data Structure", "type": "Data Structure"}, "parentProduct": {"href": "/mdr/adam/adam-occds-1-1", "title": "ADaM Structure for Occurrence Data (OCCDS) Version 1.1", "type": "Implementation Guide"}, "parentVariableSet": {"href": "/mdr/adam/adam-occds-1-1/datastructures/OCCDS/varsets/StandardizedMedDRAQuery", "title": "OCCDS Standardized MedDRA Query Variables", "type": "Variable Set"}, "self": {"href": "/mdr/adam/adam-occds-1-1/datastructures/OCCDS/variables/ADECODy", "title": "Analysis Dictionary-Derived Term y", "type": "Analysis Variable"}}, "core": "Perm", "description": "The terms used for the analysis when combining multiple customized query or multiple standardized MedDRA queries and the original MedDRA dictionary terms under 1 variable \\n Although designed for MedDRA queries, this variable could be used for other OCCDS analysis needs.", "label": "Analysis Dictionary-Derived Term y", "name": "ADECODy", "ordinal": "6", "simpleDatatype": "Char"}], "label": "OCCDS Standardized MedDRA Query Variables", "name": "Standardized MedDRA Query", "ordinal": "17"}, {"_links": {"parentDatastructure": {"href": "/mdr/adam/adam-occds-1-1/datastructures/OCCDS", "title": "Occurrence Data Structure", "type": "Data Structure"}, "parentProduct": {"href": "/mdr/adam/adam-occds-1-1", "title": "ADaM Structure for Occurrence Data (OCCDS) Version 1.1", "type": "Implementation Guide"}, "self": {"href": "/mdr/adam/adam-occds-1-1/datastructures/OCCDS/varsets/OriginalorPriorWHODrugCoding", "title": "OCCDS Original or Prior WHO Drug Coding Variables", "type": "Variable Set"}}, "analysisVariables": [{"_links": {"parentDatastructure": {"href": "/mdr/adam/adam-occds-1-1/datastructures/OCCDS", "title": "Occurrence Data Structure", "type": "Data Structure"}, "parentProduct": {"href": "/mdr/adam/adam-occds-1-1", "title": "ADaM Structure for Occurrence Data (OCCDS) Version 1.1", "type": "Implementation Guide"}, "parentVariableSet": {"href": "/mdr/adam/adam-occds-1-1/datastructures/OCCDS/varsets/OriginalorPriorWHODrugCoding", "title": "OCCDS Original or Prior WHO Drug Coding Variables", "type": "Variable Set"}, "self": {"href": "/mdr/adam/adam-occds-1-1/datastructures/OCCDS/variables/DECDORGw", "title": "Standardized Med Name in Orig Dict w", "type": "Analysis Variable"}}, "core": "Perm", "describedValueDomain": "WHODRUG", "description": "Original standardized medication name of CM.CMTRT using WHO Drug version X.X", "label": "Standardized Med Name in Orig Dict w", "name": "DECDORGw", "ordinal": "1", "simpleDatatype": "Char"}, {"_links": {"parentDatastructure": {"href": "/mdr/adam/adam-occds-1-1/datastructures/OCCDS", "title": "Occurrence Data Structure", "type": "Data Structure"}, "parentProduct": {"href": "/mdr/adam/adam-occds-1-1", "title": "ADaM Structure for Occurrence Data (OCCDS) Version 1.1", "type": "Implementation Guide"}, "parentVariableSet": {"href": "/mdr/adam/adam-occds-1-1/datastructures/OCCDS/varsets/OriginalorPriorWHODrugCoding", "title": "OCCDS Original or Prior WHO Drug Coding Variables", "type": "Variable Set"}, "priorVersion": {"href": "/mdr/adam/adam-occds-1-0/datastructures/OCCDS/variables/CLASORGw", "title": "Medication Class in Orig Dictionary w", "type": "Analysis Variable"}, "self": {"href": "/mdr/adam/adam-occds-1-1/datastructures/OCCDS/variables/CLASORGw", "title": "Medication Class in Orig Dictionary w", "type": "Analysis Variable"}}, "core": "Perm", "describedValueDomain": "WHODRUG", "description": "Original medication class of CM.CMTRT using WHO Drug version X.X", "label": "Medication Class in Orig Dictionary w", "name": "CLASORGw", "ordinal": "2", "simpleDatatype": "Char"}, {"_links": {"parentDatastructure": {"href": "/mdr/adam/adam-occds-1-1/datastructures/OCCDS", "title": "Occurrence Data Structure", "type": "Data Structure"}, "parentProduct": {"href": "/mdr/adam/adam-occds-1-1", "title": "ADaM Structure for Occurrence Data (OCCDS) Version 1.1", "type": "Implementation Guide"}, "parentVariableSet": {"href": "/mdr/adam/adam-occds-1-1/datastructures/OCCDS/varsets/OriginalorPriorWHODrugCoding", "title": "OCCDS Original or Prior WHO Drug Coding Variables", "type": "Variable Set"}, "priorVersion": {"href": "/mdr/adam/adam-occds-1-0/datastructures/OCCDS/variables/CLCDORGw", "title": "Medication Class Code in Orig Dict w", "type": "Analysis Variable"}, "self": {"href": "/mdr/adam/adam-occds-1-1/datastructures/OCCDS/variables/CLCDORGw", "title": "Medication Class Code in Orig Dict w", "type": "Analysis Variable"}}, "core": "Perm", "describedValueDomain": "WHODRUG", "description": "Original medication class code of CM.CMTRT using WHO Drug version X.X", "label": "Medication Class Code in Orig Dict w", "name": "CLCDORGw", "ordinal": "3", "simpleDatatype": "Char"}, {"_links": {"parentDatastructure": {"href": "/mdr/adam/adam-occds-1-1/datastructures/OCCDS", "title": "Occurrence Data Structure", "type": "Data Structure"}, "parentProduct": {"href": "/mdr/adam/adam-occds-1-1", "title": "ADaM Structure for Occurrence Data (OCCDS) Version 1.1", "type": "Implementation Guide"}, "parentVariableSet": {"href": "/mdr/adam/adam-occds-1-1/datastructures/OCCDS/varsets/OriginalorPriorWHODrugCoding", "title": "OCCDS Original or Prior WHO Drug Coding Variables", "type": "Variable Set"}, "priorVersion": {"href": "/mdr/adam/adam-occds-1-0/datastructures/OCCDS/variables/ATyCORGw", "title": "ATC Level y Code in Orig Dictionary w", "type": "Analysis Variable"}, "self": {"href": "/mdr/adam/adam-occds-1-1/datastructures/OCCDS/variables/ATyCORGw", "title": "ATC Level y Code in Orig Dictionary w", "type": "Analysis Variable"}}, "core": "Perm", "describedValueDomain": "WHODRUG", "description": "Original ATC Level y code of CM.CMTRT using WHO Drug version X.X", "label": "ATC Level y Code in Orig Dictionary w", "name": "ATyCORGw", "ordinal": "4", "simpleDatatype": "Char"}, {"_links": {"parentDatastructure": {"href": "/mdr/adam/adam-occds-1-1/datastructures/OCCDS", "title": "Occurrence Data Structure", "type": "Data Structure"}, "parentProduct": {"href": "/mdr/adam/adam-occds-1-1", "title": "ADaM Structure for Occurrence Data (OCCDS) Version 1.1", "type": "Implementation Guide"}, "parentVariableSet": {"href": "/mdr/adam/adam-occds-1-1/datastructures/OCCDS/varsets/OriginalorPriorWHODrugCoding", "title": "OCCDS Original or Prior WHO Drug Coding Variables", "type": "Variable Set"}, "priorVersion": {"href": "/mdr/adam/adam-occds-1-0/datastructures/OCCDS/variables/ATyTORGw", "title": "ATC Level y Text in Orig Dictionary w", "type": "Analysis Variable"}, "self": {"href": "/mdr/adam/adam-occds-1-1/datastructures/OCCDS/variables/ATyTORGw", "title": "ATC Level y Text in Orig Dictionary w", "type": "Analysis Variable"}}, "core": "Perm", "describedValueDomain": "WHODRUG", "description": "Original ATC Level y text of CM.CMTRT using WHO Drug version X.X", "label": "ATC Level y Text in Orig Dictionary w", "name": "ATyTORGw", "ordinal": "5", "simpleDatatype": "Char"}], "label": "OCCDS Original or Prior WHO Drug Coding Variables", "name": "Original or Prior WHO Drug Coding", "ordinal": "18"}, {"_links": {"parentDatastructure": {"href": "/mdr/adam/adam-occds-1-1/datastructures/OCCDS", "title": "Occurrence Data Structure", "type": "Data Structure"}, "parentProduct": {"href": "/mdr/adam/adam-occds-1-1", "title": "ADaM Structure for Occurrence Data (OCCDS) Version 1.1", "type": "Implementation Guide"}, "self": {"href": "/mdr/adam/adam-occds-1-1/datastructures/OCCDS/varsets/OriginalorPriorMedDRACoding", "title": "OCCDS Original or Prior MedDRA Coding Variables", "type": "Variable Set"}}, "analysisVariables": [{"_links": {"parentDatastructure": {"href": "/mdr/adam/adam-occds-1-1/datastructures/OCCDS", "title": "Occurrence Data Structure", "type": "Data Structure"}, "parentProduct": {"href": "/mdr/adam/adam-occds-1-1", "title": "ADaM Structure for Occurrence Data (OCCDS) Version 1.1", "type": "Implementation Guide"}, "parentVariableSet": {"href": "/mdr/adam/adam-occds-1-1/datastructures/OCCDS/varsets/OriginalorPriorMedDRACoding", "title": "OCCDS Original or Prior MedDRA Coding Variables", "type": "Variable Set"}, "self": {"href": "/mdr/adam/adam-occds-1-1/datastructures/OCCDS/variables/DECDORGw", "title": "PT in Original Dictionary w", "type": "Analysis Variable"}}, "core": "Perm", "describedValueDomain": "MedDRA", "description": "Original preferred term coding of XX.--TERM using MedDRA or other dictionary version X.X", "label": "PT in Original Dictionary w", "name": "DECDORGw", "ordinal": "1", "simpleDatatype": "Char"}, {"_links": {"parentDatastructure": {"href": "/mdr/adam/adam-occds-1-1/datastructures/OCCDS", "title": "Occurrence Data Structure", "type": "Data Structure"}, "parentProduct": {"href": "/mdr/adam/adam-occds-1-1", "title": "ADaM Structure for Occurrence Data (OCCDS) Version 1.1", "type": "Implementation Guide"}, "parentVariableSet": {"href": "/mdr/adam/adam-occds-1-1/datastructures/OCCDS/varsets/OriginalorPriorMedDRACoding", "title": "OCCDS Original or Prior MedDRA Coding Variables", "type": "Variable Set"}, "priorVersion": {"href": "/mdr/adam/adam-occds-1-0/datastructures/OCCDS/variables/BDSYORGw", "title": "SOC in Original Dictionary w", "type": "Analysis Variable"}, "self": {"href": "/mdr/adam/adam-occds-1-1/datastructures/OCCDS/variables/BDSYORGw", "title": "SOC in Original Dictionary w", "type": "Analysis Variable"}}, "core": "Perm", "describedValueDomain": "MedDRA", "description": "Original body system coding of XX.--TERM using MedDRA or other dictionary version X.X", "label": "SOC in Original Dictionary w", "name": "BDSYORGw", "ordinal": "2", "simpleDatatype": "Char"}, {"_links": {"parentDatastructure": {"href": "/mdr/adam/adam-occds-1-1/datastructures/OCCDS", "title": "Occurrence Data Structure", "type": "Data Structure"}, "parentProduct": {"href": "/mdr/adam/adam-occds-1-1", "title": "ADaM Structure for Occurrence Data (OCCDS) Version 1.1", "type": "Implementation Guide"}, "parentVariableSet": {"href": "/mdr/adam/adam-occds-1-1/datastructures/OCCDS/varsets/OriginalorPriorMedDRACoding", "title": "OCCDS Original or Prior MedDRA Coding Variables", "type": "Variable Set"}, "priorVersion": {"href": "/mdr/adam/adam-occds-1-0/datastructures/OCCDS/variables/HLGTORGw", "title": "HLGT in Original Dictionary w", "type": "Analysis Variable"}, "self": {"href": "/mdr/adam/adam-occds-1-1/datastructures/OCCDS/variables/HLGTORGw", "title": "HLGT in Original Dictionary w", "type": "Analysis Variable"}}, "core": "Perm", "describedValueDomain": "MedDRA", "description": "Original HLGT coding of XX.--TERM using MedDRA or other dictionary version X.X", "label": "HLGT in Original Dictionary w", "name": "HLGTORGw", "ordinal": "3", "simpleDatatype": "Char"}, {"_links": {"parentDatastructure": {"href": "/mdr/adam/adam-occds-1-1/datastructures/OCCDS", "title": "Occurrence Data Structure", "type": "Data Structure"}, "parentProduct": {"href": "/mdr/adam/adam-occds-1-1", "title": "ADaM Structure for Occurrence Data (OCCDS) Version 1.1", "type": "Implementation Guide"}, "parentVariableSet": {"href": "/mdr/adam/adam-occds-1-1/datastructures/OCCDS/varsets/OriginalorPriorMedDRACoding", "title": "OCCDS Original or Prior MedDRA Coding Variables", "type": "Variable Set"}, "priorVersion": {"href": "/mdr/adam/adam-occds-1-0/datastructures/OCCDS/variables/HLTORGw", "title": "HLT in Original Dictionary w", "type": "Analysis Variable"}, "self": {"href": "/mdr/adam/adam-occds-1-1/datastructures/OCCDS/variables/HLTORGw", "title": "HLT in Original Dictionary w", "type": "Analysis Variable"}}, "core": "Perm", "describedValueDomain": "MedDRA", "description": "Original HLT coding of XX.--TERM using MedDRA or other dictionary version X.X", "label": "HLT in Original Dictionary w", "name": "HLTORGw", "ordinal": "4", "simpleDatatype": "Char"}, {"_links": {"parentDatastructure": {"href": "/mdr/adam/adam-occds-1-1/datastructures/OCCDS", "title": "Occurrence Data Structure", "type": "Data Structure"}, "parentProduct": {"href": "/mdr/adam/adam-occds-1-1", "title": "ADaM Structure for Occurrence Data (OCCDS) Version 1.1", "type": "Implementation Guide"}, "parentVariableSet": {"href": "/mdr/adam/adam-occds-1-1/datastructures/OCCDS/varsets/OriginalorPriorMedDRACoding", "title": "OCCDS Original or Prior MedDRA Coding Variables", "type": "Variable Set"}, "priorVersion": {"href": "/mdr/adam/adam-occds-1-0/datastructures/OCCDS/variables/LLTORGw", "title": "LLT in Original Dictionary w", "type": "Analysis Variable"}, "self": {"href": "/mdr/adam/adam-occds-1-1/datastructures/OCCDS/variables/LLTORGw", "title": "LLT in Original Dictionary w", "type": "Analysis Variable"}}, "core": "Perm", "describedValueDomain": "MedDRA", "description": "Original LLT coding of XX.--TERM using MedDRA or other dictionary version X.X", "label": "LLT in Original Dictionary w", "name": "LLTORGw", "ordinal": "5", "simpleDatatype": "Char"}, {"_links": {"parentDatastructure": {"href": "/mdr/adam/adam-occds-1-1/datastructures/OCCDS", "title": "Occurrence Data Structure", "type": "Data Structure"}, "parentProduct": {"href": "/mdr/adam/adam-occds-1-1", "title": "ADaM Structure for Occurrence Data (OCCDS) Version 1.1", "type": "Implementation Guide"}, "parentVariableSet": {"href": "/mdr/adam/adam-occds-1-1/datastructures/OCCDS/varsets/OriginalorPriorMedDRACoding", "title": "OCCDS Original or Prior MedDRA Coding Variables", "type": "Variable Set"}, "priorVersion": {"href": "/mdr/adam/adam-occds-1-0/datastructures/OCCDS/variables/LLTNORGw", "title": "LLT Code in Original Dictionary w", "type": "Analysis Variable"}, "self": {"href": "/mdr/adam/adam-occds-1-1/datastructures/OCCDS/variables/LLTNORGw", "title": "LLT Code in Original Dictionary w", "type": "Analysis Variable"}}, "core": "Perm", "describedValueDomain": "MedDRA", "description": "Original LLT code of XX.--TERM using MedDRA or other dictionary version X.X", "label": "LLT Code in Original Dictionary w", "name": "LLTNORGw", "ordinal": "6", "simpleDatatype": "Char"}], "label": "OCCDS Original or Prior MedDRA Coding Variables", "name": "Original or Prior MedDRA Coding", "ordinal": "19"}], "class": "OCCURRENCE DATA STRUCTURE", "description": "Generally these are 1 record per record in SDTM domain (optional: per coding path, per Analysis Period and/or Phase. See Section 1.1, Purpose, for examples of when the analysis data structure might not be one record per record in SDTM domain.)", "label": "Occurrence Data Structure", "name": "OCCDS", "ordinal": "1"}, {"_links": {"parentClassDatastructure": {"href": "/mdr/adam/adam-occds-1-1/datastructures/OCCDS", "title": "Occurrence Data Structure", "type": "Data Structure"}, "parentProduct": {"href": "/mdr/adam/adam-occds-1-1", "title": "ADaM Structure for Occurrence Data (OCCDS) Version 1.1", "type": "Implementation Guide"}, "self": {"href": "/mdr/adam/adam-occds-1-1/datastructures/AE", "title": "Occurrence Data Structure Adverse Event", "type": "Data Structure"}}, "analysisVariableSets": [{"_links": {"parentClassVariableSet": {"href": "/mdr/adam/adam-occds-1-1/datastructures/OCCDS/varsets/Identifier", "title": "OCCDS Identifier Variables", "type": "Variable Set"}, "parentDatastructure": {"href": "/mdr/adam/adam-occds-1-1/datastructures/AE", "title": "Occurrence Data Structure Adverse Event", "type": "Data Structure"}, "parentProduct": {"href": "/mdr/adam/adam-occds-1-1", "title": "ADaM Structure for Occurrence Data (OCCDS) Version 1.1", "type": "Implementation Guide"}, "self": {"href": "/mdr/adam/adam-occds-1-1/datastructures/AE/varsets/Identifier", "title": "AE Identifier Variables", "type": "Variable Set"}}, "analysisVariables": [{"_links": {"parentClassVariable": {"href": "/mdr/adam/adam-occds-1-1/datastructures/OCCDS/variables/STUDYID", "title": "Study Identifier", "type": "Analysis Variable"}, "parentDatastructure": {"href": "/mdr/adam/adam-occds-1-1/datastructures/AE", "title": "Occurrence Data Structure Adverse Event", "type": "Data Structure"}, "parentProduct": {"href": "/mdr/adam/adam-occds-1-1", "title": "ADaM Structure for Occurrence Data (OCCDS) Version 1.1", "type": "Implementation Guide"}, "parentVariableSet": {"href": "/mdr/adam/adam-occds-1-1/datastructures/AE/varsets/Identifier", "title": "AE Identifier Variables", "type": "Variable Set"}, "self": {"href": "/mdr/adam/adam-occds-1-1/datastructures/AE/variables/STUDYID", "title": "Study Identifier", "type": "Analysis Variable"}}, "core": "Req", "description": "XX.STUDYID", "label": "Study Identifier", "name": "STUDYID", "ordinal": "1", "simpleDatatype": "Char"}, {"_links": {"parentClassVariable": {"href": "/mdr/adam/adam-occds-1-1/datastructures/OCCDS/variables/USUBJID", "title": "Unique Subject Identifier", "type": "Analysis Variable"}, "parentDatastructure": {"href": "/mdr/adam/adam-occds-1-1/datastructures/AE", "title": "Occurrence Data Structure Adverse Event", "type": "Data Structure"}, "parentProduct": {"href": "/mdr/adam/adam-occds-1-1", "title": "ADaM Structure for Occurrence Data (OCCDS) Version 1.1", "type": "Implementation Guide"}, "parentVariableSet": {"href": "/mdr/adam/adam-occds-1-1/datastructures/AE/varsets/Identifier", "title": "AE Identifier Variables", "type": "Variable Set"}, "self": {"href": "/mdr/adam/adam-occds-1-1/datastructures/AE/variables/USUBJID", "title": "Unique Subject Identifier", "type": "Analysis Variable"}}, "core": "Req", "description": "XX.USUBJID", "label": "Unique Subject Identifier", "name": "USUBJID", "ordinal": "2", "simpleDatatype": "Char"}, {"_links": {"parentClassVariable": {"href": "/mdr/adam/adam-occds-1-1/datastructures/OCCDS/variables/SUBJID", "title": "Subject Identifier for the Study", "type": "Analysis Variable"}, "parentDatastructure": {"href": "/mdr/adam/adam-occds-1-1/datastructures/AE", "title": "Occurrence Data Structure Adverse Event", "type": "Data Structure"}, "parentProduct": {"href": "/mdr/adam/adam-occds-1-1", "title": "ADaM Structure for Occurrence Data (OCCDS) Version 1.1", "type": "Implementation Guide"}, "parentVariableSet": {"href": "/mdr/adam/adam-occds-1-1/datastructures/AE/varsets/Identifier", "title": "AE Identifier Variables", "type": "Variable Set"}, "self": {"href": "/mdr/adam/adam-occds-1-1/datastructures/AE/variables/SUBJID", "title": "Subject Identifier for the Study", "type": "Analysis Variable"}}, "core": "Perm", "description": "ADSL.SUBJID", "label": "Subject Identifier for the Study", "name": "SUBJID", "ordinal": "3", "simpleDatatype": "Char"}, {"_links": {"parentClassVariable": {"href": "/mdr/adam/adam-occds-1-1/datastructures/OCCDS/variables/SITEID", "title": "Study Site Identifier", "type": "Analysis Variable"}, "parentDatastructure": {"href": "/mdr/adam/adam-occds-1-1/datastructures/AE", "title": "Occurrence Data Structure Adverse Event", "type": "Data Structure"}, "parentProduct": {"href": "/mdr/adam/adam-occds-1-1", "title": "ADaM Structure for Occurrence Data (OCCDS) Version 1.1", "type": "Implementation Guide"}, "parentVariableSet": {"href": "/mdr/adam/adam-occds-1-1/datastructures/AE/varsets/Identifier", "title": "AE Identifier Variables", "type": "Variable Set"}, "self": {"href": "/mdr/adam/adam-occds-1-1/datastructures/AE/variables/SITEID", "title": "Study Site Identifier", "type": "Analysis Variable"}}, "core": "Perm", "description": "ADSL.SITEID", "label": "Study Site Identifier", "name": "SITEID", "ordinal": "4", "simpleDatatype": "Char"}], "label": "AE Identifier Variables", "name": "Identifier", "ordinal": "1"}, {"_links": {"parentClassVariableSet": {"href": "/mdr/adam/adam-occds-1-1/datastructures/OCCDS/varsets/RowIdentifier", "title": "OCCDS Row Identifier Variables", "type": "Variable Set"}, "parentDatastructure": {"href": "/mdr/adam/adam-occds-1-1/datastructures/AE", "title": "Occurrence Data Structure Adverse Event", "type": "Data Structure"}, "parentProduct": {"href": "/mdr/adam/adam-occds-1-1", "title": "ADaM Structure for Occurrence Data (OCCDS) Version 1.1", "type": "Implementation Guide"}, "self": {"href": "/mdr/adam/adam-occds-1-1/datastructures/AE/varsets/RowIdentifier", "title": "AE Row Identifier Variables", "type": "Variable Set"}}, "analysisVariables": [{"_links": {"parentClassVariable": {"href": "/mdr/adam/adam-occds-1-1/datastructures/OCCDS/variables/--SEQ", "title": "Sequence Number", "type": "Analysis Variable"}, "parentDatastructure": {"href": "/mdr/adam/adam-occds-1-1/datastructures/AE", "title": "Occurrence Data Structure Adverse Event", "type": "Data Structure"}, "parentProduct": {"href": "/mdr/adam/adam-occds-1-1", "title": "ADaM Structure for Occurrence Data (OCCDS) Version 1.1", "type": "Implementation Guide"}, "parentVariableSet": {"href": "/mdr/adam/adam-occds-1-1/datastructures/AE/varsets/RowIdentifier", "title": "AE Row Identifier Variables", "type": "Variable Set"}, "self": {"href": "/mdr/adam/adam-occds-1-1/datastructures/AE/variables/--SEQ", "title": "Sequence Number", "type": "Analysis Variable"}}, "core": "Req", "description": "XX.--SEQ \\n Identifies the sequence number in SDTM domain XX that is the source for this row. This variable would be copied unchanged from the SDTM domain XX. Required for traceability back to SDTM when rows in the dataset are created from a single SDTM domain. This may be missing for derived rows. \\n For SubClass ADVERSE EVENT, use AESEQ, copied from SDTM AE.AESEQ.", "label": "Sequence Number", "name": "--SEQ", "ordinal": "1", "simpleDatatype": "Num"}, {"_links": {"parentClassVariable": {"href": "/mdr/adam/adam-occds-1-1/datastructures/OCCDS/variables/SRCDOM", "title": "Source Data", "type": "Analysis Variable"}, "parentDatastructure": {"href": "/mdr/adam/adam-occds-1-1/datastructures/AE", "title": "Occurrence Data Structure Adverse Event", "type": "Data Structure"}, "parentProduct": {"href": "/mdr/adam/adam-occds-1-1", "title": "ADaM Structure for Occurrence Data (OCCDS) Version 1.1", "type": "Implementation Guide"}, "parentVariableSet": {"href": "/mdr/adam/adam-occds-1-1/datastructures/AE/varsets/RowIdentifier", "title": "AE Row Identifier Variables", "type": "Variable Set"}, "self": {"href": "/mdr/adam/adam-occds-1-1/datastructures/AE/variables/SRCDOM", "title": "Source Data", "type": "Analysis Variable"}}, "core": "Not used", "description": "Identifies the name of the domain or dataset that is the source for this row. If the source data is a supplemental qualifier in SDTM, this variable will contain the value of RDOMAIN in SUPP-- or SUPPQUAL. Used when rows in the OCCDS dataset are from multiple SDTM domains or from one or more ADaM datasets. Not to be used in conjunction with --SEQ. This may be missing for derived rows. \\n For SubClass ADVERSE EVENT, AESEQ is used rather than SRCDOM and SRCSEQ.", "label": "Source Data", "name": "SRCDOM", "ordinal": "2", "simpleDatatype": "Char"}, {"_links": {"parentClassVariable": {"href": "/mdr/adam/adam-occds-1-1/datastructures/OCCDS/variables/SRCSEQ", "title": "Source Sequence Number", "type": "Analysis Variable"}, "parentDatastructure": {"href": "/mdr/adam/adam-occds-1-1/datastructures/AE", "title": "Occurrence Data Structure Adverse Event", "type": "Data Structure"}, "parentProduct": {"href": "/mdr/adam/adam-occds-1-1", "title": "ADaM Structure for Occurrence Data (OCCDS) Version 1.1", "type": "Implementation Guide"}, "parentVariableSet": {"href": "/mdr/adam/adam-occds-1-1/datastructures/AE/varsets/RowIdentifier", "title": "AE Row Identifier Variables", "type": "Variable Set"}, "self": {"href": "/mdr/adam/adam-occds-1-1/datastructures/AE/variables/SRCSEQ", "title": "Source Sequence Number", "type": "Analysis Variable"}}, "core": "Not used", "description": "Identifies the sequence number that is the source for this row. If SRCDOM is a SUPPQUAL, then this variable will contain the sequence number of the relevant related domain record. Used when rows in the OCCDS dataset are from multiple SDTM domains or from one or more ADaM datasets. Not to be used in conjunction with --SEQ. This may be missing for derived rows. \\n For SubClass ADVERSE EVENT, AESEQ is used rather than SRCDOM and SRCSEQ.", "label": "Source Sequence Number", "name": "SRCSEQ", "ordinal": "3", "simpleDatatype": "Num"}, {"_links": {"parentClassVariable": {"href": "/mdr/adam/adam-occds-1-1/datastructures/OCCDS/variables/ASEQ", "title": "Analysis Sequence Number", "type": "Analysis Variable"}, "parentDatastructure": {"href": "/mdr/adam/adam-occds-1-1/datastructures/AE", "title": "Occurrence Data Structure Adverse Event", "type": "Data Structure"}, "parentProduct": {"href": "/mdr/adam/adam-occds-1-1", "title": "ADaM Structure for Occurrence Data (OCCDS) Version 1.1", "type": "Implementation Guide"}, "parentVariableSet": {"href": "/mdr/adam/adam-occds-1-1/datastructures/AE/varsets/RowIdentifier", "title": "AE Row Identifier Variables", "type": "Variable Set"}, "self": {"href": "/mdr/adam/adam-occds-1-1/datastructures/AE/variables/ASEQ", "title": "Analysis Sequence Number", "type": "Analysis Variable"}}, "core": "Perm", "description": "Sequence number given to ensure uniqueness of subject records within an ADaM dataset. \\n ASEQ is useful for traceability when the OCCDS dataset is used as input to another ADaM dataset and the --SEQ variable is not included or unique. ASEQ is described in more detail in ADaMIG v1.2, Section 3.3.1, Identifier Variables for BDS Datasets.", "label": "Analysis Sequence Number", "name": "ASEQ", "ordinal": "4", "simpleDatatype": "Num"}], "label": "AE Row Identifier Variables", "name": "Row Identifier", "ordinal": "2"}, {"_links": {"parentClassVariableSet": {"href": "/mdr/adam/adam-occds-1-1/datastructures/OCCDS/varsets/MedDRADictionaryCoding", "title": "OCCDS MedDRA Dictionary Coding Variables", "type": "Variable Set"}, "parentDatastructure": {"href": "/mdr/adam/adam-occds-1-1/datastructures/AE", "title": "Occurrence Data Structure Adverse Event", "type": "Data Structure"}, "parentProduct": {"href": "/mdr/adam/adam-occds-1-1", "title": "ADaM Structure for Occurrence Data (OCCDS) Version 1.1", "type": "Implementation Guide"}, "self": {"href": "/mdr/adam/adam-occds-1-1/datastructures/AE/varsets/MedDRADictionaryCoding", "title": "AE MedDRA Dictionary Coding Variables", "type": "Variable Set"}}, "analysisVariables": [{"_links": {"parentClassVariable": {"href": "/mdr/adam/adam-occds-1-1/datastructures/OCCDS/variables/--TERM", "title": "Reported Term", "type": "Analysis Variable"}, "parentDatastructure": {"href": "/mdr/adam/adam-occds-1-1/datastructures/AE", "title": "Occurrence Data Structure Adverse Event", "type": "Data Structure"}, "parentProduct": {"href": "/mdr/adam/adam-occds-1-1", "title": "ADaM Structure for Occurrence Data (OCCDS) Version 1.1", "type": "Implementation Guide"}, "parentVariableSet": {"href": "/mdr/adam/adam-occds-1-1/datastructures/AE/varsets/MedDRADictionaryCoding", "title": "AE MedDRA Dictionary Coding Variables", "type": "Variable Set"}, "self": {"href": "/mdr/adam/adam-occds-1-1/datastructures/AE/variables/--TERM", "title": "Reported Term", "type": "Analysis Variable"}}, "core": "Req", "description": "Copied from XX.--TERM \\n This variable label differs depending on the SDTM domain. See SDTM v1.7 Section 2.2.2, The Events Observation Class, and SDTMIG v3.3 Section 6.2, Models for Events Domains, for details.", "label": "Reported Term", "name": "--TERM", "ordinal": "1", "simpleDatatype": "Char"}, {"_links": {"parentClassVariable": {"href": "/mdr/adam/adam-occds-1-1/datastructures/OCCDS/variables/--DECOD", "title": "Dictionary-Derived Term", "type": "Analysis Variable"}, "parentDatastructure": {"href": "/mdr/adam/adam-occds-1-1/datastructures/AE", "title": "Occurrence Data Structure Adverse Event", "type": "Data Structure"}, "parentProduct": {"href": "/mdr/adam/adam-occds-1-1", "title": "ADaM Structure for Occurrence Data (OCCDS) Version 1.1", "type": "Implementation Guide"}, "parentVariableSet": {"href": "/mdr/adam/adam-occds-1-1/datastructures/AE/varsets/MedDRADictionaryCoding", "title": "AE MedDRA Dictionary Coding Variables", "type": "Variable Set"}, "self": {"href": "/mdr/adam/adam-occds-1-1/datastructures/AE/variables/--DECOD", "title": "Dictionary-Derived Term", "type": "Analysis Variable"}}, "core": "Req", "describedValueDomain": "MedDRA", "description": "Copied from XX.--DECOD \\n This variable is typically one of the primary variables used in an analysis and would be brought in from the SDTM domain. Equivalent to the MedDRA PT. All other SDTM domain variables and supplemental qualifiers needed for analysis or traceability should also be included. Include the dictionary version in the metadata. \\n Conditional on whether coded and used for analysis. Required for adverse event data.", "label": "Dictionary-Derived Term", "name": "--DECOD", "ordinal": "2", "simpleDatatype": "Char"}, {"_links": {"parentClassVariable": {"href": "/mdr/adam/adam-occds-1-1/datastructures/OCCDS/variables/--BODSYS", "title": "Body System or Organ Class", "type": "Analysis Variable"}, "parentDatastructure": {"href": "/mdr/adam/adam-occds-1-1/datastructures/AE", "title": "Occurrence Data Structure Adverse Event", "type": "Data Structure"}, "parentProduct": {"href": "/mdr/adam/adam-occds-1-1", "title": "ADaM Structure for Occurrence Data (OCCDS) Version 1.1", "type": "Implementation Guide"}, "parentVariableSet": {"href": "/mdr/adam/adam-occds-1-1/datastructures/AE/varsets/MedDRADictionaryCoding", "title": "AE MedDRA Dictionary Coding Variables", "type": "Variable Set"}, "self": {"href": "/mdr/adam/adam-occds-1-1/datastructures/AE/variables/--BODSYS", "title": "Body System or Organ Class", "type": "Analysis Variable"}}, "core": "Req", "describedValueDomain": "MedDRA", "description": "Copied from XX.--BODSYS \\n Include the dictionary version in the metadata. \\n Conditional on whether coded and used for analysis. Required for adverse event data.", "label": "Body System or Organ Class", "name": "--BODSYS", "ordinal": "3", "simpleDatatype": "Char"}, {"_links": {"parentClassVariable": {"href": "/mdr/adam/adam-occds-1-1/datastructures/OCCDS/variables/--BDSYCD", "title": "Body System or Organ Class Code", "type": "Analysis Variable"}, "parentDatastructure": {"href": "/mdr/adam/adam-occds-1-1/datastructures/AE", "title": "Occurrence Data Structure Adverse Event", "type": "Data Structure"}, "parentProduct": {"href": "/mdr/adam/adam-occds-1-1", "title": "ADaM Structure for Occurrence Data (OCCDS) Version 1.1", "type": "Implementation Guide"}, "parentVariableSet": {"href": "/mdr/adam/adam-occds-1-1/datastructures/AE/varsets/MedDRADictionaryCoding", "title": "AE MedDRA Dictionary Coding Variables", "type": "Variable Set"}, "self": {"href": "/mdr/adam/adam-occds-1-1/datastructures/AE/variables/--BDSYCD", "title": "Body System or Organ Class Code", "type": "Analysis Variable"}}, "core": "Req", "describedValueDomain": "MedDRA", "description": "Copied from XX.--BDSYCD or the supplemental qualifier \\n This would be copied from the SDTM domain XX or supplemental qualifier dataset. Include the dictionary version in the metadata.", "label": "Body System or Organ Class Code", "name": "--BDSYCD", "ordinal": "4", "simpleDatatype": "Num"}, {"_links": {"parentClassVariable": {"href": "/mdr/adam/adam-occds-1-1/datastructures/OCCDS/variables/--LLT", "title": "Lowest Level Term", "type": "Analysis Variable"}, "parentDatastructure": {"href": "/mdr/adam/adam-occds-1-1/datastructures/AE", "title": "Occurrence Data Structure Adverse Event", "type": "Data Structure"}, "parentProduct": {"href": "/mdr/adam/adam-occds-1-1", "title": "ADaM Structure for Occurrence Data (OCCDS) Version 1.1", "type": "Implementation Guide"}, "parentVariableSet": {"href": "/mdr/adam/adam-occds-1-1/datastructures/AE/varsets/MedDRADictionaryCoding", "title": "AE MedDRA Dictionary Coding Variables", "type": "Variable Set"}, "self": {"href": "/mdr/adam/adam-occds-1-1/datastructures/AE/variables/--LLT", "title": "Lowest Level Term", "type": "Analysis Variable"}}, "core": "Req", "describedValueDomain": "MedDRA", "description": "Copied from XX.-- LLT or the supplemental qualifier \\n Include the dictionary version in the metadata. \\n Conditional on whether coded and used for analysis.", "label": "Lowest Level Term", "name": "--LLT", "ordinal": "5", "simpleDatatype": "Char"}, {"_links": {"parentClassVariable": {"href": "/mdr/adam/adam-occds-1-1/datastructures/OCCDS/variables/--LLTCD", "title": "Lowest Level Term Code", "type": "Analysis Variable"}, "parentDatastructure": {"href": "/mdr/adam/adam-occds-1-1/datastructures/AE", "title": "Occurrence Data Structure Adverse Event", "type": "Data Structure"}, "parentProduct": {"href": "/mdr/adam/adam-occds-1-1", "title": "ADaM Structure for Occurrence Data (OCCDS) Version 1.1", "type": "Implementation Guide"}, "parentVariableSet": {"href": "/mdr/adam/adam-occds-1-1/datastructures/AE/varsets/MedDRADictionaryCoding", "title": "AE MedDRA Dictionary Coding Variables", "type": "Variable Set"}, "self": {"href": "/mdr/adam/adam-occds-1-1/datastructures/AE/variables/--LLTCD", "title": "Lowest Level Term Code", "type": "Analysis Variable"}}, "core": "Req", "describedValueDomain": "MedDRA", "description": "Copied from XX.--LLTCD or the supplemental qualifier \\n Include the dictionary version in the metadata.", "label": "Lowest Level Term Code", "name": "--LLTCD", "ordinal": "6", "simpleDatatype": "Num"}, {"_links": {"parentClassVariable": {"href": "/mdr/adam/adam-occds-1-1/datastructures/OCCDS/variables/--PTCD", "title": "Preferred Term Code", "type": "Analysis Variable"}, "parentDatastructure": {"href": "/mdr/adam/adam-occds-1-1/datastructures/AE", "title": "Occurrence Data Structure Adverse Event", "type": "Data Structure"}, "parentProduct": {"href": "/mdr/adam/adam-occds-1-1", "title": "ADaM Structure for Occurrence Data (OCCDS) Version 1.1", "type": "Implementation Guide"}, "parentVariableSet": {"href": "/mdr/adam/adam-occds-1-1/datastructures/AE/varsets/MedDRADictionaryCoding", "title": "AE MedDRA Dictionary Coding Variables", "type": "Variable Set"}, "self": {"href": "/mdr/adam/adam-occds-1-1/datastructures/AE/variables/--PTCD", "title": "Preferred Term Code", "type": "Analysis Variable"}}, "core": "Req", "describedValueDomain": "MedDRA", "description": "Copied from XX.--PTCD or the supplemental qualifier \\n Include the dictionary version in the metadata.", "label": "Preferred Term Code", "name": "--PTCD", "ordinal": "7", "simpleDatatype": "Num"}, {"_links": {"parentClassVariable": {"href": "/mdr/adam/adam-occds-1-1/datastructures/OCCDS/variables/--HLT", "title": "High Level Term", "type": "Analysis Variable"}, "parentDatastructure": {"href": "/mdr/adam/adam-occds-1-1/datastructures/AE", "title": "Occurrence Data Structure Adverse Event", "type": "Data Structure"}, "parentProduct": {"href": "/mdr/adam/adam-occds-1-1", "title": "ADaM Structure for Occurrence Data (OCCDS) Version 1.1", "type": "Implementation Guide"}, "parentVariableSet": {"href": "/mdr/adam/adam-occds-1-1/datastructures/AE/varsets/MedDRADictionaryCoding", "title": "AE MedDRA Dictionary Coding Variables", "type": "Variable Set"}, "self": {"href": "/mdr/adam/adam-occds-1-1/datastructures/AE/variables/--HLT", "title": "High Level Term", "type": "Analysis Variable"}}, "core": "Req", "describedValueDomain": "MedDRA", "description": "Copied from XX.--HLT or the supplemental qualifier \\n Include the dictionary version in the metadata. \\n Conditional on whether used for analysis.", "label": "High Level Term", "name": "--HLT", "ordinal": "8", "simpleDatatype": "Char"}, {"_links": {"parentClassVariable": {"href": "/mdr/adam/adam-occds-1-1/datastructures/OCCDS/variables/--HLTCD", "title": "High Level Term Code", "type": "Analysis Variable"}, "parentDatastructure": {"href": "/mdr/adam/adam-occds-1-1/datastructures/AE", "title": "Occurrence Data Structure Adverse Event", "type": "Data Structure"}, "parentProduct": {"href": "/mdr/adam/adam-occds-1-1", "title": "ADaM Structure for Occurrence Data (OCCDS) Version 1.1", "type": "Implementation Guide"}, "parentVariableSet": {"href": "/mdr/adam/adam-occds-1-1/datastructures/AE/varsets/MedDRADictionaryCoding", "title": "AE MedDRA Dictionary Coding Variables", "type": "Variable Set"}, "self": {"href": "/mdr/adam/adam-occds-1-1/datastructures/AE/variables/--HLTCD", "title": "High Level Term Code", "type": "Analysis Variable"}}, "core": "Req", "describedValueDomain": "MedDRA", "description": "Copied from XX.--HLTCD or the supplemental qualifier \\n Include the dictionary version in the metadata.", "label": "High Level Term Code", "name": "--HLTCD", "ordinal": "9", "simpleDatatype": "Num"}, {"_links": {"parentClassVariable": {"href": "/mdr/adam/adam-occds-1-1/datastructures/OCCDS/variables/--HLGT", "title": "High Level Group Term", "type": "Analysis Variable"}, "parentDatastructure": {"href": "/mdr/adam/adam-occds-1-1/datastructures/AE", "title": "Occurrence Data Structure Adverse Event", "type": "Data Structure"}, "parentProduct": {"href": "/mdr/adam/adam-occds-1-1", "title": "ADaM Structure for Occurrence Data (OCCDS) Version 1.1", "type": "Implementation Guide"}, "parentVariableSet": {"href": "/mdr/adam/adam-occds-1-1/datastructures/AE/varsets/MedDRADictionaryCoding", "title": "AE MedDRA Dictionary Coding Variables", "type": "Variable Set"}, "self": {"href": "/mdr/adam/adam-occds-1-1/datastructures/AE/variables/--HLGT", "title": "High Level Group Term", "type": "Analysis Variable"}}, "core": "Req", "describedValueDomain": "MedDRA", "description": "Copied from XX.--HLGT or the supplemental qualifier \\n Include the dictionary version in the metadata. \\n Conditional on whether used for analysis.", "label": "High Level Group Term", "name": "--HLGT", "ordinal": "10", "simpleDatatype": "Char"}, {"_links": {"parentClassVariable": {"href": "/mdr/adam/adam-occds-1-1/datastructures/OCCDS/variables/--HLGTCD", "title": "High Level Group Term Code", "type": "Analysis Variable"}, "parentDatastructure": {"href": "/mdr/adam/adam-occds-1-1/datastructures/AE", "title": "Occurrence Data Structure Adverse Event", "type": "Data Structure"}, "parentProduct": {"href": "/mdr/adam/adam-occds-1-1", "title": "ADaM Structure for Occurrence Data (OCCDS) Version 1.1", "type": "Implementation Guide"}, "parentVariableSet": {"href": "/mdr/adam/adam-occds-1-1/datastructures/AE/varsets/MedDRADictionaryCoding", "title": "AE MedDRA Dictionary Coding Variables", "type": "Variable Set"}, "self": {"href": "/mdr/adam/adam-occds-1-1/datastructures/AE/variables/--HLGTCD", "title": "High Level Group Term Code", "type": "Analysis Variable"}}, "core": "Req", "describedValueDomain": "MedDRA", "description": "Copied from XX.--HLGTCD or the supplemental qualifier \\n Include the dictionary version in the metadata.", "label": "High Level Group Term Code", "name": "--HLGTCD", "ordinal": "11", "simpleDatatype": "Num"}, {"_links": {"parentClassVariable": {"href": "/mdr/adam/adam-occds-1-1/datastructures/OCCDS/variables/--SOC", "title": "Primary System Organ Class", "type": "Analysis Variable"}, "parentDatastructure": {"href": "/mdr/adam/adam-occds-1-1/datastructures/AE", "title": "Occurrence Data Structure Adverse Event", "type": "Data Structure"}, "parentProduct": {"href": "/mdr/adam/adam-occds-1-1", "title": "ADaM Structure for Occurrence Data (OCCDS) Version 1.1", "type": "Implementation Guide"}, "parentVariableSet": {"href": "/mdr/adam/adam-occds-1-1/datastructures/AE/varsets/MedDRADictionaryCoding", "title": "AE MedDRA Dictionary Coding Variables", "type": "Variable Set"}, "self": {"href": "/mdr/adam/adam-occds-1-1/datastructures/AE/variables/--SOC", "title": "Primary System Organ Class", "type": "Analysis Variable"}}, "core": "Req", "describedValueDomain": "MedDRA", "description": "Copied from XX.--SOC or the supplemental qualifier \\n Include the dictionary version in the metadata. \\n Conditional on whether a secondary SOC was used for analysis.", "label": "Primary System Organ Class", "name": "--SOC", "ordinal": "12", "simpleDatatype": "Char"}, {"_links": {"parentClassVariable": {"href": "/mdr/adam/adam-occds-1-1/datastructures/OCCDS/variables/--SOCCD", "title": "Primary System Organ Class Code", "type": "Analysis Variable"}, "parentDatastructure": {"href": "/mdr/adam/adam-occds-1-1/datastructures/AE", "title": "Occurrence Data Structure Adverse Event", "type": "Data Structure"}, "parentProduct": {"href": "/mdr/adam/adam-occds-1-1", "title": "ADaM Structure for Occurrence Data (OCCDS) Version 1.1", "type": "Implementation Guide"}, "parentVariableSet": {"href": "/mdr/adam/adam-occds-1-1/datastructures/AE/varsets/MedDRADictionaryCoding", "title": "AE MedDRA Dictionary Coding Variables", "type": "Variable Set"}, "self": {"href": "/mdr/adam/adam-occds-1-1/datastructures/AE/variables/--SOCCD", "title": "Primary System Organ Class Code", "type": "Analysis Variable"}}, "core": "Req", "describedValueDomain": "MedDRA", "description": "Copied from XX.--SOCCD or the supplemental qualifier \\n Include the dictionary version in the metadata.", "label": "Primary System Organ Class Code", "name": "--SOCCD", "ordinal": "13", "simpleDatatype": "Num"}], "label": "AE MedDRA Dictionary Coding Variables", "name": "MedDRA Dictionary Coding", "ordinal": "3"}, {"_links": {"parentClassVariableSet": {"href": "/mdr/adam/adam-occds-1-1/datastructures/OCCDS/varsets/WHODrugDictionaryCoding", "title": "OCCDS WHO Drug Dictionary Coding Variables", "type": "Variable Set"}, "parentDatastructure": {"href": "/mdr/adam/adam-occds-1-1/datastructures/AE", "title": "Occurrence Data Structure Adverse Event", "type": "Data Structure"}, "parentProduct": {"href": "/mdr/adam/adam-occds-1-1", "title": "ADaM Structure for Occurrence Data (OCCDS) Version 1.1", "type": "Implementation Guide"}, "self": {"href": "/mdr/adam/adam-occds-1-1/datastructures/AE/varsets/WHODrugDictionaryCoding", "title": "AE WHO Drug Dictionary Coding Variables", "type": "Variable Set"}}, "analysisVariables": [{"_links": {"parentClassVariable": {"href": "/mdr/adam/adam-occds-1-1/datastructures/OCCDS/variables/CMTRT", "title": "Reported Name of Drug, Med, or Therapy", "type": "Analysis Variable"}, "parentDatastructure": {"href": "/mdr/adam/adam-occds-1-1/datastructures/AE", "title": "Occurrence Data Structure Adverse Event", "type": "Data Structure"}, "parentProduct": {"href": "/mdr/adam/adam-occds-1-1", "title": "ADaM Structure for Occurrence Data (OCCDS) Version 1.1", "type": "Implementation Guide"}, "parentVariableSet": {"href": "/mdr/adam/adam-occds-1-1/datastructures/AE/varsets/WHODrugDictionaryCoding", "title": "AE WHO Drug Dictionary Coding Variables", "type": "Variable Set"}, "self": {"href": "/mdr/adam/adam-occds-1-1/datastructures/AE/variables/CMTRT", "title": "Reported Name of Drug, Med, or Therapy", "type": "Analysis Variable"}}, "core": "Not Used", "description": "CM.CMTRT", "label": "Reported Name of Drug, Med, or Therapy", "name": "CMTRT", "ordinal": "1", "simpleDatatype": "Char"}, {"_links": {"parentClassVariable": {"href": "/mdr/adam/adam-occds-1-1/datastructures/OCCDS/variables/CMDECOD", "title": "Standardized Medication Name", "type": "Analysis Variable"}, "parentDatastructure": {"href": "/mdr/adam/adam-occds-1-1/datastructures/AE", "title": "Occurrence Data Structure Adverse Event", "type": "Data Structure"}, "parentProduct": {"href": "/mdr/adam/adam-occds-1-1", "title": "ADaM Structure for Occurrence Data (OCCDS) Version 1.1", "type": "Implementation Guide"}, "parentVariableSet": {"href": "/mdr/adam/adam-occds-1-1/datastructures/AE/varsets/WHODrugDictionaryCoding", "title": "AE WHO Drug Dictionary Coding Variables", "type": "Variable Set"}, "self": {"href": "/mdr/adam/adam-occds-1-1/datastructures/AE/variables/CMDECOD", "title": "Standardized Medication Name", "type": "Analysis Variable"}}, "core": "Not Used", "describedValueDomain": "WHO Drug", "description": "CM.CMDECOD \\n This is typically one of the primary variables used in CM analysis and would be copied from the SDTM CM domain. Include the dictionary version in the variable metadata. \\n Conditional on whether coded and used for analysis.", "label": "Standardized Medication Name", "name": "CMDECOD", "ordinal": "2", "simpleDatatype": "Char"}, {"_links": {"parentClassVariable": {"href": "/mdr/adam/adam-occds-1-1/datastructures/OCCDS/variables/CMCLAS", "title": "Medication Class", "type": "Analysis Variable"}, "parentDatastructure": {"href": "/mdr/adam/adam-occds-1-1/datastructures/AE", "title": "Occurrence Data Structure Adverse Event", "type": "Data Structure"}, "parentProduct": {"href": "/mdr/adam/adam-occds-1-1", "title": "ADaM Structure for Occurrence Data (OCCDS) Version 1.1", "type": "Implementation Guide"}, "parentVariableSet": {"href": "/mdr/adam/adam-occds-1-1/datastructures/AE/varsets/WHODrugDictionaryCoding", "title": "AE WHO Drug Dictionary Coding Variables", "type": "Variable Set"}, "self": {"href": "/mdr/adam/adam-occds-1-1/datastructures/AE/variables/CMCLAS", "title": "Medication Class", "type": "Analysis Variable"}}, "core": "Not Used", "description": "CM.CMCLAS \\n Include the dictionary version in the metadata.", "label": "Medication Class", "name": "CMCLAS", "ordinal": "3", "simpleDatatype": "Char"}, {"_links": {"parentClassVariable": {"href": "/mdr/adam/adam-occds-1-1/datastructures/OCCDS/variables/CMCLASCD", "title": "Medication Class Code", "type": "Analysis Variable"}, "parentDatastructure": {"href": "/mdr/adam/adam-occds-1-1/datastructures/AE", "title": "Occurrence Data Structure Adverse Event", "type": "Data Structure"}, "parentProduct": {"href": "/mdr/adam/adam-occds-1-1", "title": "ADaM Structure for Occurrence Data (OCCDS) Version 1.1", "type": "Implementation Guide"}, "parentVariableSet": {"href": "/mdr/adam/adam-occds-1-1/datastructures/AE/varsets/WHODrugDictionaryCoding", "title": "AE WHO Drug Dictionary Coding Variables", "type": "Variable Set"}, "self": {"href": "/mdr/adam/adam-occds-1-1/datastructures/AE/variables/CMCLASCD", "title": "Medication Class Code", "type": "Analysis Variable"}}, "core": "Not Used", "description": "CM.CMCLASCD \\n Include the dictionary version in the metadata.", "label": "Medication Class Code", "name": "CMCLASCD", "ordinal": "4", "simpleDatatype": "Char"}, {"_links": {"parentClassVariable": {"href": "/mdr/adam/adam-occds-1-1/datastructures/OCCDS/variables/ATCy", "title": "ATC Level y Text", "type": "Analysis Variable"}, "parentDatastructure": {"href": "/mdr/adam/adam-occds-1-1/datastructures/AE", "title": "Occurrence Data Structure Adverse Event", "type": "Data Structure"}, "parentProduct": {"href": "/mdr/adam/adam-occds-1-1", "title": "ADaM Structure for Occurrence Data (OCCDS) Version 1.1", "type": "Implementation Guide"}, "parentVariableSet": {"href": "/mdr/adam/adam-occds-1-1/datastructures/AE/varsets/WHODrugDictionaryCoding", "title": "AE WHO Drug Dictionary Coding Variables", "type": "Variable Set"}, "self": {"href": "/mdr/adam/adam-occds-1-1/datastructures/AE/variables/ATCy", "title": "ATC Level y Text", "type": "Analysis Variable"}}, "core": "Not Used", "describedValueDomain": "WHO Drug", "description": "Corresponds to the ATC Level Text for WHO Drug. Include the dictionary version in the variable metadata. \\n Conditional, based on analysis at multiple levels (y)", "label": "ATC Level y Text", "name": "ATCy", "ordinal": "5", "simpleDatatype": "Char"}, {"_links": {"parentClassVariable": {"href": "/mdr/adam/adam-occds-1-1/datastructures/OCCDS/variables/ATCyCD", "title": "ATC Level y Code", "type": "Analysis Variable"}, "parentDatastructure": {"href": "/mdr/adam/adam-occds-1-1/datastructures/AE", "title": "Occurrence Data Structure Adverse Event", "type": "Data Structure"}, "parentProduct": {"href": "/mdr/adam/adam-occds-1-1", "title": "ADaM Structure for Occurrence Data (OCCDS) Version 1.1", "type": "Implementation Guide"}, "parentVariableSet": {"href": "/mdr/adam/adam-occds-1-1/datastructures/AE/varsets/WHODrugDictionaryCoding", "title": "AE WHO Drug Dictionary Coding Variables", "type": "Variable Set"}, "self": {"href": "/mdr/adam/adam-occds-1-1/datastructures/AE/variables/ATCyCD", "title": "ATC Level y Code", "type": "Analysis Variable"}}, "core": "Not Used", "describedValueDomain": "WHO Drug", "description": "Corresponds to the ATC Level Code for WHO Drug. Include the dictionary version in the variable metadata. \\n Conditional, based on analysis at multiple levels (y)", "label": "ATC Level y Code", "name": "ATCyCD", "ordinal": "6", "simpleDatatype": "Char"}], "label": "AE WHO Drug Dictionary Coding Variables", "name": "WHO Drug Dictionary Coding", "ordinal": "4"}, {"_links": {"parentClassVariableSet": {"href": "/mdr/adam/adam-occds-1-1/datastructures/OCCDS/varsets/OtherCategorization", "title": "OCCDS Other Categorization Variables", "type": "Variable Set"}, "parentDatastructure": {"href": "/mdr/adam/adam-occds-1-1/datastructures/AE", "title": "Occurrence Data Structure Adverse Event", "type": "Data Structure"}, "parentProduct": {"href": "/mdr/adam/adam-occds-1-1", "title": "ADaM Structure for Occurrence Data (OCCDS) Version 1.1", "type": "Implementation Guide"}, "self": {"href": "/mdr/adam/adam-occds-1-1/datastructures/AE/varsets/OtherCategorization", "title": "AE Other Categorization Variables", "type": "Variable Set"}}, "analysisVariables": [{"_links": {"parentClassVariable": {"href": "/mdr/adam/adam-occds-1-1/datastructures/OCCDS/variables/--CAT", "title": "Category", "type": "Analysis Variable"}, "parentDatastructure": {"href": "/mdr/adam/adam-occds-1-1/datastructures/AE", "title": "Occurrence Data Structure Adverse Event", "type": "Data Structure"}, "parentProduct": {"href": "/mdr/adam/adam-occds-1-1", "title": "ADaM Structure for Occurrence Data (OCCDS) Version 1.1", "type": "Implementation Guide"}, "parentVariableSet": {"href": "/mdr/adam/adam-occds-1-1/datastructures/AE/varsets/OtherCategorization", "title": "AE Other Categorization Variables", "type": "Variable Set"}, "self": {"href": "/mdr/adam/adam-occds-1-1/datastructures/AE/variables/--CAT", "title": "Category", "type": "Analysis Variable"}}, "core": "Perm", "description": "Copied from XX.--CAT \\n This variable label differs depending on the SDTM domain. See SDTM v1.7 Section 2.2, The General Observation Classes, and SDTMIG v3.3 Section 6, Domain Models Based on the General Observation Classes, for details.", "label": "Category", "name": "--CAT", "ordinal": "1", "simpleDatatype": "Char"}, {"_links": {"parentClassVariable": {"href": "/mdr/adam/adam-occds-1-1/datastructures/OCCDS/variables/--SCAT", "title": "Subcategory", "type": "Analysis Variable"}, "parentDatastructure": {"href": "/mdr/adam/adam-occds-1-1/datastructures/AE", "title": "Occurrence Data Structure Adverse Event", "type": "Data Structure"}, "parentProduct": {"href": "/mdr/adam/adam-occds-1-1", "title": "ADaM Structure for Occurrence Data (OCCDS) Version 1.1", "type": "Implementation Guide"}, "parentVariableSet": {"href": "/mdr/adam/adam-occds-1-1/datastructures/AE/varsets/OtherCategorization", "title": "AE Other Categorization Variables", "type": "Variable Set"}, "self": {"href": "/mdr/adam/adam-occds-1-1/datastructures/AE/variables/--SCAT", "title": "Subcategory", "type": "Analysis Variable"}}, "core": "Perm", "description": "Copied from XX.--SCAT \\n This variable label differs depending on the SDTM domain. See SDTM v1.7 Section 2.2, The General Observation Classes, and SDTMIG v3.3 Section 6, Domain Models Based on the General Observation Classes, for details.", "label": "Subcategory", "name": "--SCAT", "ordinal": "2", "simpleDatatype": "Char"}, {"_links": {"parentClassVariable": {"href": "/mdr/adam/adam-occds-1-1/datastructures/OCCDS/variables/ACATy", "title": "Analysis Category y", "type": "Analysis Variable"}, "parentDatastructure": {"href": "/mdr/adam/adam-occds-1-1/datastructures/AE", "title": "Occurrence Data Structure Adverse Event", "type": "Data Structure"}, "parentProduct": {"href": "/mdr/adam/adam-occds-1-1", "title": "ADaM Structure for Occurrence Data (OCCDS) Version 1.1", "type": "Implementation Guide"}, "parentVariableSet": {"href": "/mdr/adam/adam-occds-1-1/datastructures/AE/varsets/OtherCategorization", "title": "AE Other Categorization Variables", "type": "Variable Set"}, "self": {"href": "/mdr/adam/adam-occds-1-1/datastructures/AE/variables/ACATy", "title": "Analysis Category y", "type": "Analysis Variable"}}, "core": "Perm", "description": "Category used in analysis. May be derived from --CAT and/or --SCAT. Examples include records of special interest like prohibited medications, concomitant medications taken during an infusion reaction, growth factors, antimicrobial medications, and other such categories not defined elsewhere or present in SDTM domains.", "label": "Analysis Category y", "name": "ACATy", "ordinal": "3", "simpleDatatype": "Char"}], "label": "AE Other Categorization Variables", "name": "Other Categorization", "ordinal": "5"}, {"_links": {"parentClassVariableSet": {"href": "/mdr/adam/adam-occds-1-1/datastructures/OCCDS/varsets/Timing", "title": "OCCDS Timing Variables", "type": "Variable Set"}, "parentDatastructure": {"href": "/mdr/adam/adam-occds-1-1/datastructures/AE", "title": "Occurrence Data Structure Adverse Event", "type": "Data Structure"}, "parentProduct": {"href": "/mdr/adam/adam-occds-1-1", "title": "ADaM Structure for Occurrence Data (OCCDS) Version 1.1", "type": "Implementation Guide"}, "self": {"href": "/mdr/adam/adam-occds-1-1/datastructures/AE/varsets/Timing", "title": "AE Timing Variables", "type": "Variable Set"}}, "analysisVariables": [{"_links": {"parentClassVariable": {"href": "/mdr/adam/adam-occds-1-1/datastructures/OCCDS/variables/--STDTC", "title": "Start Date/Time of Observation", "type": "Analysis Variable"}, "parentDatastructure": {"href": "/mdr/adam/adam-occds-1-1/datastructures/AE", "title": "Occurrence Data Structure Adverse Event", "type": "Data Structure"}, "parentProduct": {"href": "/mdr/adam/adam-occds-1-1", "title": "ADaM Structure for Occurrence Data (OCCDS) Version 1.1", "type": "Implementation Guide"}, "parentVariableSet": {"href": "/mdr/adam/adam-occds-1-1/datastructures/AE/varsets/Timing", "title": "AE Timing Variables", "type": "Variable Set"}, "self": {"href": "/mdr/adam/adam-occds-1-1/datastructures/AE/variables/--STDTC", "title": "Start Date/Time of Observation", "type": "Analysis Variable"}}, "core": "Req", "describedValueDomain": "ISO 8601", "description": "Copied from XX.-STDTC \\n Conditional on whether start date is pertinent for study and is populated in SDTM \\n This variable label differs depending on the SDTM domain. See SDTM v1.7 Section 2.2.5, Timing Variables for All Classes, and SDTMIG v3.3 Section 6, Domain Models Based on the General Observation Classes for details.", "label": "Start Date/Time of Observation", "name": "--STDTC", "ordinal": "1", "simpleDatatype": "Char"}, {"_links": {"parentClassVariable": {"href": "/mdr/adam/adam-occds-1-1/datastructures/OCCDS/variables/ASTDT", "title": "Analysis Start Date", "type": "Analysis Variable"}, "parentDatastructure": {"href": "/mdr/adam/adam-occds-1-1/datastructures/AE", "title": "Occurrence Data Structure Adverse Event", "type": "Data Structure"}, "parentProduct": {"href": "/mdr/adam/adam-occds-1-1", "title": "ADaM Structure for Occurrence Data (OCCDS) Version 1.1", "type": "Implementation Guide"}, "parentVariableSet": {"href": "/mdr/adam/adam-occds-1-1/datastructures/AE/varsets/Timing", "title": "AE Timing Variables", "type": "Variable Set"}, "self": {"href": "/mdr/adam/adam-occds-1-1/datastructures/AE/variables/ASTDT", "title": "Analysis Start Date", "type": "Analysis Variable"}}, "core": "Req", "description": "Created from converting XX.--STDTC from character ISO 8601 format to numeric date format, applying imputation rules if specified in the statistical analysis plan (SAP) or metadata \\n Conditional on whether start date is pertinent for study and is populated in SDTM", "label": "Analysis Start Date", "name": "ASTDT", "ordinal": "2", "simpleDatatype": "Num"}, {"_links": {"parentClassVariable": {"href": "/mdr/adam/adam-occds-1-1/datastructures/OCCDS/variables/ASTTM", "title": "Analysis Start Time", "type": "Analysis Variable"}, "parentDatastructure": {"href": "/mdr/adam/adam-occds-1-1/datastructures/AE", "title": "Occurrence Data Structure Adverse Event", "type": "Data Structure"}, "parentProduct": {"href": "/mdr/adam/adam-occds-1-1", "title": "ADaM Structure for Occurrence Data (OCCDS) Version 1.1", "type": "Implementation Guide"}, "parentVariableSet": {"href": "/mdr/adam/adam-occds-1-1/datastructures/AE/varsets/Timing", "title": "AE Timing Variables", "type": "Variable Set"}, "self": {"href": "/mdr/adam/adam-occds-1-1/datastructures/AE/variables/ASTTM", "title": "Analysis Start Time", "type": "Analysis Variable"}}, "core": "Cond", "description": "Created from converting XX.--STDTC from character ISO 8601 format to numeric time format, applying imputation rules if specified in the SAP or metadata \\n Conditional on whether start time is pertinent for study and is populated in SDTM", "label": "Analysis Start Time", "name": "ASTTM", "ordinal": "3", "simpleDatatype": "Num"}, {"_links": {"parentClassVariable": {"href": "/mdr/adam/adam-occds-1-1/datastructures/OCCDS/variables/ASTDTM", "title": "Analysis Start Datetime", "type": "Analysis Variable"}, "parentDatastructure": {"href": "/mdr/adam/adam-occds-1-1/datastructures/AE", "title": "Occurrence Data Structure Adverse Event", "type": "Data Structure"}, "parentProduct": {"href": "/mdr/adam/adam-occds-1-1", "title": "ADaM Structure for Occurrence Data (OCCDS) Version 1.1", "type": "Implementation Guide"}, "parentVariableSet": {"href": "/mdr/adam/adam-occds-1-1/datastructures/AE/varsets/Timing", "title": "AE Timing Variables", "type": "Variable Set"}, "self": {"href": "/mdr/adam/adam-occds-1-1/datastructures/AE/variables/ASTDTM", "title": "Analysis Start Datetime", "type": "Analysis Variable"}}, "core": "Cond", "description": "Created from converting XX.--STDTC from character ISO 8601 format to numeric datetime format, applying imputation rules if specified in the SAP or metadata \\n Conditional on whether start datetime is pertinent for study and is populated in SDTM", "label": "Analysis Start Datetime", "name": "ASTDTM", "ordinal": "4", "simpleDatatype": "Num"}, {"_links": {"codelist": [{"href": "/mdr/root/ct/adamct/codelists/C81223", "title": "Version-agnostic anchor resource for codelist C81223", "type": "Root Value Domain"}], "parentClassVariable": {"href": "/mdr/adam/adam-occds-1-1/datastructures/OCCDS/variables/ASTDTF", "title": "Analysis Start Date Imputation Flag", "type": "Analysis Variable"}, "parentDatastructure": {"href": "/mdr/adam/adam-occds-1-1/datastructures/AE", "title": "Occurrence Data Structure Adverse Event", "type": "Data Structure"}, "parentProduct": {"href": "/mdr/adam/adam-occds-1-1", "title": "ADaM Structure for Occurrence Data (OCCDS) Version 1.1", "type": "Implementation Guide"}, "parentVariableSet": {"href": "/mdr/adam/adam-occds-1-1/datastructures/AE/varsets/Timing", "title": "AE Timing Variables", "type": "Variable Set"}, "self": {"href": "/mdr/adam/adam-occds-1-1/datastructures/AE/variables/ASTDTF", "title": "Analysis Start Date Imputation Flag", "type": "Analysis Variable"}}, "codelistSubmissionValues": ["DATEFL"], "core": "Cond", "description": "The level of imputation of analysis start date. Imputation flags are described in ADaMIG v1.2 Section 3.1.3, Date and Time Imputation Flag Variables. \\n Conditional on whether ASTDT (or the date part of ASTDTM) was imputed", "label": "Analysis Start Date Imputation Flag", "name": "ASTDTF", "ordinal": "5", "simpleDatatype": "Char"}, {"_links": {"codelist": [{"href": "/mdr/root/ct/adamct/codelists/C81226", "title": "Version-agnostic anchor resource for codelist C81226", "type": "Root Value Domain"}], "parentClassVariable": {"href": "/mdr/adam/adam-occds-1-1/datastructures/OCCDS/variables/ASTTMF", "title": "Analysis Start Time Imputation Flag", "type": "Analysis Variable"}, "parentDatastructure": {"href": "/mdr/adam/adam-occds-1-1/datastructures/AE", "title": "Occurrence Data Structure Adverse Event", "type": "Data Structure"}, "parentProduct": {"href": "/mdr/adam/adam-occds-1-1", "title": "ADaM Structure for Occurrence Data (OCCDS) Version 1.1", "type": "Implementation Guide"}, "parentVariableSet": {"href": "/mdr/adam/adam-occds-1-1/datastructures/AE/varsets/Timing", "title": "AE Timing Variables", "type": "Variable Set"}, "self": {"href": "/mdr/adam/adam-occds-1-1/datastructures/AE/variables/ASTTMF", "title": "Analysis Start Time Imputation Flag", "type": "Analysis Variable"}}, "codelistSubmissionValues": ["TIMEFL"], "core": "Cond", "description": "The level of imputation of analysis start time. Imputation flags are described in ADaMIG v1.2 Section 3.1.3, Date and Time Imputation Flag Variables. \\n Conditional on whether ASTTM (or the time part of ASTDTM) was imputed", "label": "Analysis Start Time Imputation Flag", "name": "ASTTMF", "ordinal": "6", "simpleDatatype": "Char"}, {"_links": {"parentClassVariable": {"href": "/mdr/adam/adam-occds-1-1/datastructures/OCCDS/variables/--ENDTC", "title": "End Date/Time of Observation", "type": "Analysis Variable"}, "parentDatastructure": {"href": "/mdr/adam/adam-occds-1-1/datastructures/AE", "title": "Occurrence Data Structure Adverse Event", "type": "Data Structure"}, "parentProduct": {"href": "/mdr/adam/adam-occds-1-1", "title": "ADaM Structure for Occurrence Data (OCCDS) Version 1.1", "type": "Implementation Guide"}, "parentVariableSet": {"href": "/mdr/adam/adam-occds-1-1/datastructures/AE/varsets/Timing", "title": "AE Timing Variables", "type": "Variable Set"}, "self": {"href": "/mdr/adam/adam-occds-1-1/datastructures/AE/variables/--ENDTC", "title": "End Date/Time of Observation", "type": "Analysis Variable"}}, "core": "Req", "describedValueDomain": "ISO 8601", "description": "Copied from XX.--ENDTC \\n Conditional on whether end date is pertinent for study and is populated in SDTM \\n This variable label differs depending on the SDTM domain. See SDTM v1.7 Section 2.2.5, Timing Variables for All Classes, and SDTMIG v3.3 Section 6, Domain Models Based on the General Observation Classes, for details.", "label": "End Date/Time of Observation", "name": "--ENDTC", "ordinal": "7", "simpleDatatype": "Char"}, {"_links": {"parentClassVariable": {"href": "/mdr/adam/adam-occds-1-1/datastructures/OCCDS/variables/AENDT", "title": "Analysis End Date", "type": "Analysis Variable"}, "parentDatastructure": {"href": "/mdr/adam/adam-occds-1-1/datastructures/AE", "title": "Occurrence Data Structure Adverse Event", "type": "Data Structure"}, "parentProduct": {"href": "/mdr/adam/adam-occds-1-1", "title": "ADaM Structure for Occurrence Data (OCCDS) Version 1.1", "type": "Implementation Guide"}, "parentVariableSet": {"href": "/mdr/adam/adam-occds-1-1/datastructures/AE/varsets/Timing", "title": "AE Timing Variables", "type": "Variable Set"}, "self": {"href": "/mdr/adam/adam-occds-1-1/datastructures/AE/variables/AENDT", "title": "Analysis End Date", "type": "Analysis Variable"}}, "core": "Req", "description": "Created from converting XX.--ENDTC from character ISO 8601 format to numeric date format, applying imputation rules if specified in the SAP or metadata \\n Conditional on whether end date is pertinent for study and is populated in SDTM", "label": "Analysis End Date", "name": "AENDT", "ordinal": "8", "simpleDatatype": "Num"}, {"_links": {"parentClassVariable": {"href": "/mdr/adam/adam-occds-1-1/datastructures/OCCDS/variables/AENTM", "title": "Analysis End Time", "type": "Analysis Variable"}, "parentDatastructure": {"href": "/mdr/adam/adam-occds-1-1/datastructures/AE", "title": "Occurrence Data Structure Adverse Event", "type": "Data Structure"}, "parentProduct": {"href": "/mdr/adam/adam-occds-1-1", "title": "ADaM Structure for Occurrence Data (OCCDS) Version 1.1", "type": "Implementation Guide"}, "parentVariableSet": {"href": "/mdr/adam/adam-occds-1-1/datastructures/AE/varsets/Timing", "title": "AE Timing Variables", "type": "Variable Set"}, "self": {"href": "/mdr/adam/adam-occds-1-1/datastructures/AE/variables/AENTM", "title": "Analysis End Time", "type": "Analysis Variable"}}, "core": "Cond", "description": "Created from converting XX.--ENDTC from character ISO 8601 format to numeric time format, applying imputation rules if specified in the SAP or metadata \\n Conditional on whether end time is pertinent for study and is populated in SDTM", "label": "Analysis End Time", "name": "AENTM", "ordinal": "9", "simpleDatatype": "Num"}, {"_links": {"parentClassVariable": {"href": "/mdr/adam/adam-occds-1-1/datastructures/OCCDS/variables/AENDTM", "title": "Analysis End Datetime", "type": "Analysis Variable"}, "parentDatastructure": {"href": "/mdr/adam/adam-occds-1-1/datastructures/AE", "title": "Occurrence Data Structure Adverse Event", "type": "Data Structure"}, "parentProduct": {"href": "/mdr/adam/adam-occds-1-1", "title": "ADaM Structure for Occurrence Data (OCCDS) Version 1.1", "type": "Implementation Guide"}, "parentVariableSet": {"href": "/mdr/adam/adam-occds-1-1/datastructures/AE/varsets/Timing", "title": "AE Timing Variables", "type": "Variable Set"}, "self": {"href": "/mdr/adam/adam-occds-1-1/datastructures/AE/variables/AENDTM", "title": "Analysis End Datetime", "type": "Analysis Variable"}}, "core": "Cond", "description": "Created from converting XX.--ENDTC from character ISO 8601 format to numeric datetime format, applying imputation rules if specified in the SAP or metadata \\n Conditional on whether end datetime is pertinent for study and is populated in SDTM", "label": "Analysis End Datetime", "name": "AENDTM", "ordinal": "10", "simpleDatatype": "Num"}, {"_links": {"codelist": [{"href": "/mdr/root/ct/adamct/codelists/C81223", "title": "Version-agnostic anchor resource for codelist C81223", "type": "Root Value Domain"}], "parentClassVariable": {"href": "/mdr/adam/adam-occds-1-1/datastructures/OCCDS/variables/AENDTF", "title": "Analysis End Date Imputation Flag", "type": "Analysis Variable"}, "parentDatastructure": {"href": "/mdr/adam/adam-occds-1-1/datastructures/AE", "title": "Occurrence Data Structure Adverse Event", "type": "Data Structure"}, "parentProduct": {"href": "/mdr/adam/adam-occds-1-1", "title": "ADaM Structure for Occurrence Data (OCCDS) Version 1.1", "type": "Implementation Guide"}, "parentVariableSet": {"href": "/mdr/adam/adam-occds-1-1/datastructures/AE/varsets/Timing", "title": "AE Timing Variables", "type": "Variable Set"}, "self": {"href": "/mdr/adam/adam-occds-1-1/datastructures/AE/variables/AENDTF", "title": "Analysis End Date Imputation Flag", "type": "Analysis Variable"}}, "codelistSubmissionValues": ["DATEFL"], "core": "Cond", "description": "The level of imputation of analysis end date. Imputation flags are described in the ADaMIG v1.2 Section 3.1.3, Date and Time Imputation Flag Variables. \\n Conditional on whether AENDT (or the date part of AENDTM) was imputed", "label": "Analysis End Date Imputation Flag", "name": "AENDTF", "ordinal": "11", "simpleDatatype": "Char"}, {"_links": {"codelist": [{"href": "/mdr/root/ct/adamct/codelists/C81226", "title": "Version-agnostic anchor resource for codelist C81226", "type": "Root Value Domain"}], "parentClassVariable": {"href": "/mdr/adam/adam-occds-1-1/datastructures/OCCDS/variables/AENTMF", "title": "Analysis End Time Imputation Flag", "type": "Analysis Variable"}, "parentDatastructure": {"href": "/mdr/adam/adam-occds-1-1/datastructures/AE", "title": "Occurrence Data Structure Adverse Event", "type": "Data Structure"}, "parentProduct": {"href": "/mdr/adam/adam-occds-1-1", "title": "ADaM Structure for Occurrence Data (OCCDS) Version 1.1", "type": "Implementation Guide"}, "parentVariableSet": {"href": "/mdr/adam/adam-occds-1-1/datastructures/AE/varsets/Timing", "title": "AE Timing Variables", "type": "Variable Set"}, "self": {"href": "/mdr/adam/adam-occds-1-1/datastructures/AE/variables/AENTMF", "title": "Analysis End Time Imputation Flag", "type": "Analysis Variable"}}, "codelistSubmissionValues": ["TIMEFL"], "core": "Cond", "description": "The level of imputation of analysis end time. Imputation flags are described in the ADaMIG v1.2 Section 3.1.3, Date and Time Imputation Flag Variables. \\n Conditional on whether AENTM (or the date part of AENDTM) was imputed", "label": "Analysis End Time Imputation Flag", "name": "AENTMF", "ordinal": "12", "simpleDatatype": "Char"}, {"_links": {"parentClassVariable": {"href": "/mdr/adam/adam-occds-1-1/datastructures/OCCDS/variables/ASTDY", "title": "Analysis Start Relative Day", "type": "Analysis Variable"}, "parentDatastructure": {"href": "/mdr/adam/adam-occds-1-1/datastructures/AE", "title": "Occurrence Data Structure Adverse Event", "type": "Data Structure"}, "parentProduct": {"href": "/mdr/adam/adam-occds-1-1", "title": "ADaM Structure for Occurrence Data (OCCDS) Version 1.1", "type": "Implementation Guide"}, "parentVariableSet": {"href": "/mdr/adam/adam-occds-1-1/datastructures/AE/varsets/Timing", "title": "AE Timing Variables", "type": "Variable Set"}, "self": {"href": "/mdr/adam/adam-occds-1-1/datastructures/AE/variables/ASTDY", "title": "Analysis Start Relative Day", "type": "Analysis Variable"}}, "core": "Req", "description": "The number of days from an anchor date (not necessarily 