{"_links": {"model": {"href": "/mdr/adam/adam-2-1", "title": "Analysis Data Model Version 2.1", "type": "Foundational Model"}, "priorVersion": {"href": "/mdr/adam/adam-adae-1-0", "title": "Analysis Data Model Data Structure for Adverse Event Analysis Version 1.0", "type": "Implementation Guide"}, "self": {"href": "/mdr/adam/adam-occds-1-0", "title": "ADaM Structure for Occurrence Data (OCCDS) Version 1.0", "type": "Implementation Guide"}}, "dataStructures": [{"_links": {"parentProduct": {"href": "/mdr/adam/adam-occds-1-0", "title": "ADaM Structure for Occurrence Data (OCCDS) Version 1.0", "type": "Implementation Guide"}, "priorVersion": {"href": "/mdr/adam/adam-adae-1-0/datastructures/ADAE", "title": "Analysis Data Model Data Structure for Adverse Event Analysis Version 1.0", "type": "Implementation Guide"}, "self": {"href": "/mdr/adam/adam-occds-1-0/datastructures/OCCDS", "title": "Occurrence Data Structure", "type": "Data Structure"}}, "analysisVariableSets": [{"_links": {"parentDatastructure": {"href": "/mdr/adam/adam-occds-1-0/datastructures/OCCDS", "title": "Occurrence Data Structure", "type": "Data Structure"}, "parentProduct": {"href": "/mdr/adam/adam-occds-1-0", "title": "ADaM Structure for Occurrence Data (OCCDS) Version 1.0", "type": "Implementation Guide"}, "self": {"href": "/mdr/adam/adam-occds-1-0/datastructures/OCCDS/varsets/Identifier", "title": "OCCDS Identifier Variables", "type": "Variable Set"}}, "analysisVariables": [{"_links": {"parentDatastructure": {"href": "/mdr/adam/adam-occds-1-0/datastructures/OCCDS", "title": "Occurrence Data Structure", "type": "Data Structure"}, "parentProduct": {"href": "/mdr/adam/adam-occds-1-0", "title": "ADaM Structure for Occurrence Data (OCCDS) Version 1.0", "type": "Implementation Guide"}, "parentVariableSet": {"href": "/mdr/adam/adam-occds-1-0/datastructures/OCCDS/varsets/Identifier", "title": "OCCDS Identifier Variables", "type": "Variable Set"}, "priorVersion": {"href": "/mdr/adam/adam-adae-1-0/datastructures/ADAE/variables/STUDYID", "title": "Study Identifier", "type": "Analysis Variable"}, "self": {"href": "/mdr/adam/adam-occds-1-0/datastructures/OCCDS/variables/STUDYID", "title": "Study Identifier", "type": "Analysis Variable"}}, "core": "Req", "description": "XX.STUDYID", "label": "Study Identifier", "name": "STUDYID", "ordinal": "1", "simpleDatatype": "Char"}, {"_links": {"parentDatastructure": {"href": "/mdr/adam/adam-occds-1-0/datastructures/OCCDS", "title": "Occurrence Data Structure", "type": "Data Structure"}, "parentProduct": {"href": "/mdr/adam/adam-occds-1-0", "title": "ADaM Structure for Occurrence Data (OCCDS) Version 1.0", "type": "Implementation Guide"}, "parentVariableSet": {"href": "/mdr/adam/adam-occds-1-0/datastructures/OCCDS/varsets/Identifier", "title": "OCCDS Identifier Variables", "type": "Variable Set"}, "priorVersion": {"href": "/mdr/adam/adam-adae-1-0/datastructures/ADAE/variables/USUBJID", "title": "Unique Subject Identifier", "type": "Analysis Variable"}, "self": {"href": "/mdr/adam/adam-occds-1-0/datastructures/OCCDS/variables/USUBJID", "title": "Unique Subject Identifier", "type": "Analysis Variable"}}, "core": "Req", "description": "XX.USUBJID", "label": "Unique Subject Identifier", "name": "USUBJID", "ordinal": "2", "simpleDatatype": "Char"}, {"_links": {"parentDatastructure": {"href": "/mdr/adam/adam-occds-1-0/datastructures/OCCDS", "title": "Occurrence Data Structure", "type": "Data Structure"}, "parentProduct": {"href": "/mdr/adam/adam-occds-1-0", "title": "ADaM Structure for Occurrence Data (OCCDS) Version 1.0", "type": "Implementation Guide"}, "parentVariableSet": {"href": "/mdr/adam/adam-occds-1-0/datastructures/OCCDS/varsets/Identifier", "title": "OCCDS Identifier Variables", "type": "Variable Set"}, "priorVersion": {"href": "/mdr/adam/adam-adae-1-0/datastructures/ADAE/variables/SUBJID", "title": "Subject Identifier for the Study", "type": "Analysis Variable"}, "self": {"href": "/mdr/adam/adam-occds-1-0/datastructures/OCCDS/variables/SUBJID", "title": "Subject Identifier for the Study", "type": "Analysis Variable"}}, "core": "Perm", "description": "ADSL.SUBJID", "label": "Subject Identifier for the Study", "name": "SUBJID", "ordinal": "3", "simpleDatatype": "Char"}, {"_links": {"parentDatastructure": {"href": "/mdr/adam/adam-occds-1-0/datastructures/OCCDS", "title": "Occurrence Data Structure", "type": "Data Structure"}, "parentProduct": {"href": "/mdr/adam/adam-occds-1-0", "title": "ADaM Structure for Occurrence Data (OCCDS) Version 1.0", "type": "Implementation Guide"}, "parentVariableSet": {"href": "/mdr/adam/adam-occds-1-0/datastructures/OCCDS/varsets/Identifier", "title": "OCCDS Identifier Variables", "type": "Variable Set"}, "priorVersion": {"href": "/mdr/adam/adam-adae-1-0/datastructures/ADAE/variables/SITEID", "title": "Study Site Identifier", "type": "Analysis Variable"}, "self": {"href": "/mdr/adam/adam-occds-1-0/datastructures/OCCDS/variables/SITEID", "title": "Study Site Identifier", "type": "Analysis Variable"}}, "core": "Perm", "description": "ADSL.SITEID", "label": "Study Site Identifier", "name": "SITEID", "ordinal": "4", "simpleDatatype": "Char"}, {"_links": {"parentDatastructure": {"href": "/mdr/adam/adam-occds-1-0/datastructures/OCCDS", "title": "Occurrence Data Structure", "type": "Data Structure"}, "parentProduct": {"href": "/mdr/adam/adam-occds-1-0", "title": "ADaM Structure for Occurrence Data (OCCDS) Version 1.0", "type": "Implementation Guide"}, "parentVariableSet": {"href": "/mdr/adam/adam-occds-1-0/datastructures/OCCDS/varsets/Identifier", "title": "OCCDS Identifier Variables", "type": "Variable Set"}, "self": {"href": "/mdr/adam/adam-occds-1-0/datastructures/OCCDS/variables/--SEQ", "title": "Sequence Number", "type": "Analysis Variable"}}, "core": "Req", "description": "XX.--SEQ\nThis would be copied from the SDTM domain XX. This may be missing for derived rows. \nRequired for traceability back to SDTM", "label": "Sequence Number", "name": "--SEQ", "ordinal": "5", "simpleDatatype": "Num"}], "label": "OCCDS Identifier Variables", "name": "OCCDS Identifier Variables", "ordinal": "1"}, {"_links": {"parentDatastructure": {"href": "/mdr/adam/adam-occds-1-0/datastructures/OCCDS", "title": "Occurrence Data Structure", "type": "Data Structure"}, "parentProduct": {"href": "/mdr/adam/adam-occds-1-0", "title": "ADaM Structure for Occurrence Data (OCCDS) Version 1.0", "type": "Implementation Guide"}, "self": {"href": "/mdr/adam/adam-occds-1-0/datastructures/OCCDS/varsets/MedDRADictionaryCoding", "title": "MedDRA Dictionary Coding Variables", "type": "Variable Set"}}, "analysisVariables": [{"_links": {"parentDatastructure": {"href": "/mdr/adam/adam-occds-1-0/datastructures/OCCDS", "title": "Occurrence Data Structure", "type": "Data Structure"}, "parentProduct": {"href": "/mdr/adam/adam-occds-1-0", "title": "ADaM Structure for Occurrence Data (OCCDS) Version 1.0", "type": "Implementation Guide"}, "parentVariableSet": {"href": "/mdr/adam/adam-occds-1-0/datastructures/OCCDS/varsets/MedDRADictionaryCoding", "title": "MedDRA Dictionary Coding Variables", "type": "Variable Set"}, "self": {"href": "/mdr/adam/adam-occds-1-0/datastructures/OCCDS/variables/--TERM", "title": "Reported Term", "type": "Analysis Variable"}}, "core": "Req", "description": "XX.--TERM \nThis would be copied from the SDTM domain XX.", "label": "Reported Term", "name": "--TERM", "ordinal": "6", "simpleDatatype": "Char"}, {"_links": {"parentDatastructure": {"href": "/mdr/adam/adam-occds-1-0/datastructures/OCCDS", "title": "Occurrence Data Structure", "type": "Data Structure"}, "parentProduct": {"href": "/mdr/adam/adam-occds-1-0", "title": "ADaM Structure for Occurrence Data (OCCDS) Version 1.0", "type": "Implementation Guide"}, "parentVariableSet": {"href": "/mdr/adam/adam-occds-1-0/datastructures/OCCDS/varsets/MedDRADictionaryCoding", "title": "MedDRA Dictionary Coding Variables", "type": "Variable Set"}, "self": {"href": "/mdr/adam/adam-occds-1-0/datastructures/OCCDS/variables/--DECOD", "title": "Dictionary-Derived Term", "type": "Analysis Variable"}}, "core": "Cond", "describedValueDomain": "MedDRA", "description": "XX.--DECOD \nThis would be copied from the SDTM domain XX. It is typically one of the primary variables used in an analysis and would be brought in from the SDTM domain. Equivalent to the Preferred Term (PT in MedDRA). As mentioned above, all other SDTM domain variables and supplemental qualifiers needed for analysis or traceability should also be included. Include the dictionary version in the metadata. \nConditional on whether coded and used for analysis. Required for Adverse Event data.", "label": "Dictionary-Derived Term", "name": "--DECOD", "ordinal": "7", "simpleDatatype": "Char"}, {"_links": {"parentDatastructure": {"href": "/mdr/adam/adam-occds-1-0/datastructures/OCCDS", "title": "Occurrence Data Structure", "type": "Data Structure"}, "parentProduct": {"href": "/mdr/adam/adam-occds-1-0", "title": "ADaM Structure for Occurrence Data (OCCDS) Version 1.0", "type": "Implementation Guide"}, "parentVariableSet": {"href": "/mdr/adam/adam-occds-1-0/datastructures/OCCDS/varsets/MedDRADictionaryCoding", "title": "MedDRA Dictionary Coding Variables", "type": "Variable Set"}, "self": {"href": "/mdr/adam/adam-occds-1-0/datastructures/OCCDS/variables/--BODSYS", "title": "Body System or Organ Class", "type": "Analysis Variable"}}, "core": "Cond", "describedValueDomain": "MedDRA", "description": "XX.--BODSYS \nThis would be copied from the SDTM domain XX. It is typically one of the primary variables used in an analysis and would be brought in from the SDTM domain. As mentioned above, all other SDTM domain variables and supplemental qualifiers needed for analysis or traceability should also be included. Include the dictionary version in the metadata. \nConditional on whether coded and used for analysis. Required for Adverse Event data.", "label": "Body System or Organ Class", "name": "--BODSYS", "ordinal": "8", "simpleDatatype": "Char"}, {"_links": {"parentDatastructure": {"href": "/mdr/adam/adam-occds-1-0/datastructures/OCCDS", "title": "Occurrence Data Structure", "type": "Data Structure"}, "parentProduct": {"href": "/mdr/adam/adam-occds-1-0", "title": "ADaM Structure for Occurrence Data (OCCDS) Version 1.0", "type": "Implementation Guide"}, "parentVariableSet": {"href": "/mdr/adam/adam-occds-1-0/datastructures/OCCDS/varsets/MedDRADictionaryCoding", "title": "MedDRA Dictionary Coding Variables", "type": "Variable Set"}, "self": {"href": "/mdr/adam/adam-occds-1-0/datastructures/OCCDS/variables/--BDSYCD", "title": "Body System or Organ Class Code", "type": "Analysis Variable"}}, "core": "Perm", "describedValueDomain": "MedDRA", "description": "XX.--BDSYCD\nThis would be copied from the SDTM domain XX or supplemental qualifier dataset. Include the dictionary version in the metadata.", "label": "Body System or Organ Class Code", "name": "--BDSYCD", "ordinal": "9", "simpleDatatype": "Num"}, {"_links": {"parentDatastructure": {"href": "/mdr/adam/adam-occds-1-0/datastructures/OCCDS", "title": "Occurrence Data Structure", "type": "Data Structure"}, "parentProduct": {"href": "/mdr/adam/adam-occds-1-0", "title": "ADaM Structure for Occurrence Data (OCCDS) Version 1.0", "type": "Implementation Guide"}, "parentVariableSet": {"href": "/mdr/adam/adam-occds-1-0/datastructures/OCCDS/varsets/MedDRADictionaryCoding", "title": "MedDRA Dictionary Coding Variables", "type": "Variable Set"}, "self": {"href": "/mdr/adam/adam-occds-1-0/datastructures/OCCDS/variables/--LLT", "title": "Lowest Level Term", "type": "Analysis Variable"}}, "core": "Cond", "describedValueDomain": "MedDRA", "description": "XX.-- LLT\nThis would be copied from the SDTM domain XX or supplemental qualifier dataset. Include the dictionary version in the metadata.\nConditional on whether coded and used for analysis.", "label": "Lowest Level Term", "name": "--LLT", "ordinal": "10", "simpleDatatype": "Char"}, {"_links": {"parentDatastructure": {"href": "/mdr/adam/adam-occds-1-0/datastructures/OCCDS", "title": "Occurrence Data Structure", "type": "Data Structure"}, "parentProduct": {"href": "/mdr/adam/adam-occds-1-0", "title": "ADaM Structure for Occurrence Data (OCCDS) Version 1.0", "type": "Implementation Guide"}, "parentVariableSet": {"href": "/mdr/adam/adam-occds-1-0/datastructures/OCCDS/varsets/MedDRADictionaryCoding", "title": "MedDRA Dictionary Coding Variables", "type": "Variable Set"}, "self": {"href": "/mdr/adam/adam-occds-1-0/datastructures/OCCDS/variables/--LLTCD", "title": "Lowest Level Term Code", "type": "Analysis Variable"}}, "core": "Perm", "describedValueDomain": "MedDRA", "description": "XX.--LLTCD\nThis would be copied from the SDTM domain XX or supplemental qualifier dataset. Include the dictionary version in the metadata.", "label": "Lowest Level Term Code", "name": "--LLTCD", "ordinal": "11", "simpleDatatype": "Num"}, {"_links": {"parentDatastructure": {"href": "/mdr/adam/adam-occds-1-0/datastructures/OCCDS", "title": "Occurrence Data Structure", "type": "Data Structure"}, "parentProduct": {"href": "/mdr/adam/adam-occds-1-0", "title": "ADaM Structure for Occurrence Data (OCCDS) Version 1.0", "type": "Implementation Guide"}, "parentVariableSet": {"href": "/mdr/adam/adam-occds-1-0/datastructures/OCCDS/varsets/MedDRADictionaryCoding", "title": "MedDRA Dictionary Coding Variables", "type": "Variable Set"}, "self": {"href": "/mdr/adam/adam-occds-1-0/datastructures/OCCDS/variables/--PTCD", "title": "Preferred Term Code", "type": "Analysis Variable"}}, "core": "Perm", "describedValueDomain": "MedDRA", "description": "XX.--PTCD\nThis would be copied from the SDTM domain XX or supplemental qualifier dataset. Include the dictionary version in the metadata.", "label": "Preferred Term Code", "name": "--PTCD", "ordinal": "12", "simpleDatatype": "Num"}, {"_links": {"parentDatastructure": {"href": "/mdr/adam/adam-occds-1-0/datastructures/OCCDS", "title": "Occurrence Data Structure", "type": "Data Structure"}, "parentProduct": {"href": "/mdr/adam/adam-occds-1-0", "title": "ADaM Structure for Occurrence Data (OCCDS) Version 1.0", "type": "Implementation Guide"}, "parentVariableSet": {"href": "/mdr/adam/adam-occds-1-0/datastructures/OCCDS/varsets/MedDRADictionaryCoding", "title": "MedDRA Dictionary Coding Variables", "type": "Variable Set"}, "self": {"href": "/mdr/adam/adam-occds-1-0/datastructures/OCCDS/variables/--HLT", "title": "High Level Term", "type": "Analysis Variable"}}, "core": "Cond", "describedValueDomain": "MedDRA", "description": "XX.--HLT\nThis would be copied from the SDTM domain XX or supplemental qualifier dataset. Include the dictionary version in the metadata.\nConditional on whether used for analysis.", "label": "High Level Term", "name": "--HLT", "ordinal": "13", "simpleDatatype": "Char"}, {"_links": {"parentDatastructure": {"href": "/mdr/adam/adam-occds-1-0/datastructures/OCCDS", "title": "Occurrence Data Structure", "type": "Data Structure"}, "parentProduct": {"href": "/mdr/adam/adam-occds-1-0", "title": "ADaM Structure for Occurrence Data (OCCDS) Version 1.0", "type": "Implementation Guide"}, "parentVariableSet": {"href": "/mdr/adam/adam-occds-1-0/datastructures/OCCDS/varsets/MedDRADictionaryCoding", "title": "MedDRA Dictionary Coding Variables", "type": "Variable Set"}, "self": {"href": "/mdr/adam/adam-occds-1-0/datastructures/OCCDS/variables/--HLTCD", "title": "High Level Term Code", "type": "Analysis Variable"}}, "core": "Perm", "describedValueDomain": "MedDRA", "description": "XX.--HLTCD\nThis would be copied from the SDTM domain XX or supplemental qualifier dataset. Include the dictionary version in the metadata.", "label": "High Level Term Code", "name": "--HLTCD", "ordinal": "14", "simpleDatatype": "Num"}, {"_links": {"parentDatastructure": {"href": "/mdr/adam/adam-occds-1-0/datastructures/OCCDS", "title": "Occurrence Data Structure", "type": "Data Structure"}, "parentProduct": {"href": "/mdr/adam/adam-occds-1-0", "title": "ADaM Structure for Occurrence Data (OCCDS) Version 1.0", "type": "Implementation Guide"}, "parentVariableSet": {"href": "/mdr/adam/adam-occds-1-0/datastructures/OCCDS/varsets/MedDRADictionaryCoding", "title": "MedDRA Dictionary Coding Variables", "type": "Variable Set"}, "self": {"href": "/mdr/adam/adam-occds-1-0/datastructures/OCCDS/variables/--HLGT", "title": "High Level Group Term", "type": "Analysis Variable"}}, "core": "Cond", "describedValueDomain": "MedDRA", "description": "XX.--HLGT\nThis would be copied from the SDTM domain XX or supplemental qualifier dataset. Include the dictionary version in the metadata.\nConditional on whether used for analysis.", "label": "High Level Group Term", "name": "--HLGT", "ordinal": "15", "simpleDatatype": "Char"}, {"_links": {"parentDatastructure": {"href": "/mdr/adam/adam-occds-1-0/datastructures/OCCDS", "title": "Occurrence Data Structure", "type": "Data Structure"}, "parentProduct": {"href": "/mdr/adam/adam-occds-1-0", "title": "ADaM Structure for Occurrence Data (OCCDS) Version 1.0", "type": "Implementation Guide"}, "parentVariableSet": {"href": "/mdr/adam/adam-occds-1-0/datastructures/OCCDS/varsets/MedDRADictionaryCoding", "title": "MedDRA Dictionary Coding Variables", "type": "Variable Set"}, "self": {"href": "/mdr/adam/adam-occds-1-0/datastructures/OCCDS/variables/--HLGTCD", "title": "High Level Group Term Code", "type": "Analysis Variable"}}, "core": "Perm", "describedValueDomain": "MedDRA", "description": "XX.--HLGTCD\nThis would be copied from the SDTM domain XX or supplemental qualifier dataset. Include the dictionary version in the metadata.", "label": "High Level Group Term Code", "name": "--HLGTCD", "ordinal": "16", "simpleDatatype": "Num"}, {"_links": {"parentDatastructure": {"href": "/mdr/adam/adam-occds-1-0/datastructures/OCCDS", "title": "Occurrence Data Structure", "type": "Data Structure"}, "parentProduct": {"href": "/mdr/adam/adam-occds-1-0", "title": "ADaM Structure for Occurrence Data (OCCDS) Version 1.0", "type": "Implementation Guide"}, "parentVariableSet": {"href": "/mdr/adam/adam-occds-1-0/datastructures/OCCDS/varsets/MedDRADictionaryCoding", "title": "MedDRA Dictionary Coding Variables", "type": "Variable Set"}, "self": {"href": "/mdr/adam/adam-occds-1-0/datastructures/OCCDS/variables/--SOC", "title": "Primary System Organ Class", "type": "Analysis Variable"}}, "core": "Cond", "describedValueDomain": "MedDRA", "description": "XX.--SOC\nThis would be copied from the SDTM domain XX or supplemental qualifier dataset. Include the dictionary version in the metadata.\nConditional on whether a secondary SOC was used for analysis.", "label": "Primary System Organ Class", "name": "--SOC", "ordinal": "17", "simpleDatatype": "Char"}, {"_links": {"parentDatastructure": {"href": "/mdr/adam/adam-occds-1-0/datastructures/OCCDS", "title": "Occurrence Data Structure", "type": "Data Structure"}, "parentProduct": {"href": "/mdr/adam/adam-occds-1-0", "title": "ADaM Structure for Occurrence Data (OCCDS) Version 1.0", "type": "Implementation Guide"}, "parentVariableSet": {"href": "/mdr/adam/adam-occds-1-0/datastructures/OCCDS/varsets/MedDRADictionaryCoding", "title": "MedDRA Dictionary Coding Variables", "type": "Variable Set"}, "self": {"href": "/mdr/adam/adam-occds-1-0/datastructures/OCCDS/variables/--SOCCD", "title": "Primary System Organ Class Code", "type": "Analysis Variable"}}, "core": "Perm", "describedValueDomain": "MedDRA", "description": "XX.--SOCCD\nThis would be copied from the SDTM domain XX or supplemental qualifier dataset. Include the dictionary version in the metadata.", "label": "Primary System Organ Class Code", "name": "--SOCCD", "ordinal": "18", "simpleDatatype": "Num"}], "label": "MedDRA Dictionary Coding Variables", "name": "MedDRA Dictionary Coding Variables", "ordinal": "2"}, {"_links": {"parentDatastructure": {"href": "/mdr/adam/adam-occds-1-0/datastructures/OCCDS", "title": "Occurrence Data Structure", "type": "Data Structure"}, "parentProduct": {"href": "/mdr/adam/adam-occds-1-0", "title": "ADaM Structure for Occurrence Data (OCCDS) Version 1.0", "type": "Implementation Guide"}, "self": {"href": "/mdr/adam/adam-occds-1-0/datastructures/OCCDS/varsets/WHODrugDictionaryCoding", "title": "WHO Drug Dictionary Coding Variables", "type": "Variable Set"}}, "analysisVariables": [{"_links": {"parentDatastructure": {"href": "/mdr/adam/adam-occds-1-0/datastructures/OCCDS", "title": "Occurrence Data Structure", "type": "Data Structure"}, "parentProduct": {"href": "/mdr/adam/adam-occds-1-0", "title": "ADaM Structure for Occurrence Data (OCCDS) Version 1.0", "type": "Implementation Guide"}, "parentVariableSet": {"href": "/mdr/adam/adam-occds-1-0/datastructures/OCCDS/varsets/WHODrugDictionaryCoding", "title": "WHO Drug Dictionary Coding Variables", "type": "Variable Set"}, "self": {"href": "/mdr/adam/adam-occds-1-0/datastructures/OCCDS/variables/CMTRT", "title": "Reported Name of Drug, Med, or Therapy ", "type": "Analysis Variable"}}, "core": "Req", "description": "CM.CMTRT", "label": "Reported Name of Drug, Med, or Therapy ", "name": "CMTRT", "ordinal": "19", "simpleDatatype": "Char"}, {"_links": {"parentDatastructure": {"href": "/mdr/adam/adam-occds-1-0/datastructures/OCCDS", "title": "Occurrence Data Structure", "type": "Data Structure"}, "parentProduct": {"href": "/mdr/adam/adam-occds-1-0", "title": "ADaM Structure for Occurrence Data (OCCDS) Version 1.0", "type": "Implementation Guide"}, "parentVariableSet": {"href": "/mdr/adam/adam-occds-1-0/datastructures/OCCDS/varsets/WHODrugDictionaryCoding", "title": "WHO Drug Dictionary Coding Variables", "type": "Variable Set"}, "self": {"href": "/mdr/adam/adam-occds-1-0/datastructures/OCCDS/variables/CMDECOD", "title": "Standardized Medication Name", "type": "Analysis Variable"}}, "core": "Cond", "describedValueDomain": "WHO Drug", "description": "CM.CMDECOD\nThis is typically one of the primary variables used in CM analysis and would be copied from the SDTM CM domain. Include the dictionary version in the variable metadata.\nConditional on whether coded and used for analysis. ", "label": "Standardized Medication Name", "name": "CMDECOD", "ordinal": "20", "simpleDatatype": "Char"}, {"_links": {"parentDatastructure": {"href": "/mdr/adam/adam-occds-1-0/datastructures/OCCDS", "title": "Occurrence Data Structure", "type": "Data Structure"}, "parentProduct": {"href": "/mdr/adam/adam-occds-1-0", "title": "ADaM Structure for Occurrence Data (OCCDS) Version 1.0", "type": "Implementation Guide"}, "parentVariableSet": {"href": "/mdr/adam/adam-occds-1-0/datastructures/OCCDS/varsets/WHODrugDictionaryCoding", "title": "WHO Drug Dictionary Coding Variables", "type": "Variable Set"}, "self": {"href": "/mdr/adam/adam-occds-1-0/datastructures/OCCDS/variables/CMCLAS", "title": "Medication Class", "type": "Analysis Variable"}}, "core": "Perm", "description": "CM.CMCLAS\nInclude the dictionary version in the metadata.", "label": "Medication Class", "name": "CMCLAS", "ordinal": "21", "simpleDatatype": "Char"}, {"_links": {"parentDatastructure": {"href": "/mdr/adam/adam-occds-1-0/datastructures/OCCDS", "title": "Occurrence Data Structure", "type": "Data Structure"}, "parentProduct": {"href": "/mdr/adam/adam-occds-1-0", "title": "ADaM Structure for Occurrence Data (OCCDS) Version 1.0", "type": "Implementation Guide"}, "parentVariableSet": {"href": "/mdr/adam/adam-occds-1-0/datastructures/OCCDS/varsets/WHODrugDictionaryCoding", "title": "WHO Drug Dictionary Coding Variables", "type": "Variable Set"}, "self": {"href": "/mdr/adam/adam-occds-1-0/datastructures/OCCDS/variables/CMCLASCD", "title": "Medication Class Code", "type": "Analysis Variable"}}, "core": "Perm", "description": "CM.CMCLASCD\nInclude the dictionary version in the metadata.", "label": "Medication Class Code", "name": "CMCLASCD", "ordinal": "22", "simpleDatatype": "Char"}, {"_links": {"parentDatastructure": {"href": "/mdr/adam/adam-occds-1-0/datastructures/OCCDS", "title": "Occurrence Data Structure", "type": "Data Structure"}, "parentProduct": {"href": "/mdr/adam/adam-occds-1-0", "title": "ADaM Structure for Occurrence Data (OCCDS) Version 1.0", "type": "Implementation Guide"}, "parentVariableSet": {"href": "/mdr/adam/adam-occds-1-0/datastructures/OCCDS/varsets/WHODrugDictionaryCoding", "title": "WHO Drug Dictionary Coding Variables", "type": "Variable Set"}, "self": {"href": "/mdr/adam/adam-occds-1-0/datastructures/OCCDS/variables/ATCy", "title": "ATC Level y Text", "type": "Analysis Variable"}}, "core": "Cond", "describedValueDomain": "WHO Drug", "description": "Corresponds to the ATC Level Text for WHO Drug\nConditional, based on analysis at multiple levels (y)", "label": "ATC Level y Text", "name": "ATCy", "ordinal": "23", "simpleDatatype": "Char"}, {"_links": {"parentDatastructure": {"href": "/mdr/adam/adam-occds-1-0/datastructures/OCCDS", "title": "Occurrence Data Structure", "type": "Data Structure"}, "parentProduct": {"href": "/mdr/adam/adam-occds-1-0", "title": "ADaM Structure for Occurrence Data (OCCDS) Version 1.0", "type": "Implementation Guide"}, "parentVariableSet": {"href": "/mdr/adam/adam-occds-1-0/datastructures/OCCDS/varsets/WHODrugDictionaryCoding", "title": "WHO Drug Dictionary Coding Variables", "type": "Variable Set"}, "self": {"href": "/mdr/adam/adam-occds-1-0/datastructures/OCCDS/variables/ATCyCD", "title": "ATC Level y Code", "type": "Analysis Variable"}}, "core": "Cond", "describedValueDomain": "WHO Drug", "description": "Corresponds to the ATC Level Code for WHO Drug\nConditional, based on analysis at multiple levels (y)", "label": "ATC Level y Code", "name": "ATCyCD", "ordinal": "24", "simpleDatatype": "Char"}], "label": "WHO Drug Dictionary Coding Variables", "name": "WHO Drug Dictionary Coding Variables", "ordinal": "3"}, {"_links": {"parentDatastructure": {"href": "/mdr/adam/adam-occds-1-0/datastructures/OCCDS", "title": "Occurrence Data Structure", "type": "Data Structure"}, "parentProduct": {"href": "/mdr/adam/adam-occds-1-0", "title": "ADaM Structure for Occurrence Data (OCCDS) Version 1.0", "type": "Implementation Guide"}, "self": {"href": "/mdr/adam/adam-occds-1-0/datastructures/OCCDS/varsets/OtherCategorization", "title": "Other Categorization Variables", "type": "Variable Set"}}, "analysisVariables": [{"_links": {"parentDatastructure": {"href": "/mdr/adam/adam-occds-1-0/datastructures/OCCDS", "title": "Occurrence Data Structure", "type": "Data Structure"}, "parentProduct": {"href": "/mdr/adam/adam-occds-1-0", "title": "ADaM Structure for Occurrence Data (OCCDS) Version 1.0", "type": "Implementation Guide"}, "parentVariableSet": {"href": "/mdr/adam/adam-occds-1-0/datastructures/OCCDS/varsets/OtherCategorization", "title": "Other Categorization Variables", "type": "Variable Set"}, "self": {"href": "/mdr/adam/adam-occds-1-0/datastructures/OCCDS/variables/--CAT", "title": "Category", "type": "Analysis Variable"}}, "core": "Perm", "description": "XX.--CAT \nThis would be copied from the SDTM domain XX.", "label": "Category", "name": "--CAT", "ordinal": "25", "simpleDatatype": "Char"}, {"_links": {"parentDatastructure": {"href": "/mdr/adam/adam-occds-1-0/datastructures/OCCDS", "title": "Occurrence Data Structure", "type": "Data Structure"}, "parentProduct": {"href": "/mdr/adam/adam-occds-1-0", "title": "ADaM Structure for Occurrence Data (OCCDS) Version 1.0", "type": "Implementation Guide"}, "parentVariableSet": {"href": "/mdr/adam/adam-occds-1-0/datastructures/OCCDS/varsets/OtherCategorization", "title": "Other Categorization Variables", "type": "Variable Set"}, "self": {"href": "/mdr/adam/adam-occds-1-0/datastructures/OCCDS/variables/--SCAT", "title": "Subcategory", "type": "Analysis Variable"}}, "core": "Perm", "description": "XX.--SCAT \nThis would be copied from the SDTM domain XX.", "label": "Subcategory", "name": "--SCAT", "ordinal": "26", "simpleDatatype": "Char"}, {"_links": {"parentDatastructure": {"href": "/mdr/adam/adam-occds-1-0/datastructures/OCCDS", "title": "Occurrence Data Structure", "type": "Data Structure"}, "parentProduct": {"href": "/mdr/adam/adam-occds-1-0", "title": "ADaM Structure for Occurrence Data (OCCDS) Version 1.0", "type": "Implementation Guide"}, "parentVariableSet": {"href": "/mdr/adam/adam-occds-1-0/datastructures/OCCDS/varsets/OtherCategorization", "title": "Other Categorization Variables", "type": "Variable Set"}, "self": {"href": "/mdr/adam/adam-occds-1-0/datastructures/OCCDS/variables/ACATy", "title": "Analysis Category y", "type": "Analysis Variable"}}, "core": "Perm", "description": "Category used in analysis. May be derived from --CAT and/or --SCAT. Examples include records of special interest like prohibited medications, concomitant medications taken during an infusion reaction, growth factors, antimicrobial medications, and other such categories not defined elsewhere or present in SDTM domains.", "label": "Analysis Category y", "name": "ACATy", "ordinal": "27", "simpleDatatype": "Char"}], "label": "Other Categorization Variables", "name": "Other Categorization Variables", "ordinal": "4"}, {"_links": {"parentDatastructure": {"href": "/mdr/adam/adam-occds-1-0/datastructures/OCCDS", "title": "Occurrence Data Structure", "type": "Data Structure"}, "parentProduct": {"href": "/mdr/adam/adam-occds-1-0", "title": "ADaM Structure for Occurrence Data (OCCDS) Version 1.0", "type": "Implementation Guide"}, "self": {"href": "/mdr/adam/adam-occds-1-0/datastructures/OCCDS/varsets/Timing", "title": "Timing Variables", "type": "Variable Set"}}, "analysisVariables": [{"_links": {"parentDatastructure": {"href": "/mdr/adam/adam-occds-1-0/datastructures/OCCDS", "title": "Occurrence Data Structure", "type": "Data Structure"}, "parentProduct": {"href": "/mdr/adam/adam-occds-1-0", "title": "ADaM Structure for Occurrence Data (OCCDS) Version 1.0", "type": "Implementation Guide"}, "parentVariableSet": {"href": "/mdr/adam/adam-occds-1-0/datastructures/OCCDS/varsets/Timing", "title": "Timing Variables", "type": "Variable Set"}, "self": {"href": "/mdr/adam/adam-occds-1-0/datastructures/OCCDS/variables/--STDTC", "title": "Start Date/Time of Observation", "type": "Analysis Variable"}}, "core": "Perm", "describedValueDomain": "ISO 8601", "description": "Copied from XX.--STDTC\nThis would be copied from the SDTM domain XX.", "label": "Start Date/Time of Observation", "name": "--STDTC", "ordinal": "28", "simpleDatatype": "Char"}, {"_links": {"parentDatastructure": {"href": "/mdr/adam/adam-occds-1-0/datastructures/OCCDS", "title": "Occurrence Data Structure", "type": "Data Structure"}, "parentProduct": {"href": "/mdr/adam/adam-occds-1-0", "title": "ADaM Structure for Occurrence Data (OCCDS) Version 1.0", "type": "Implementation Guide"}, "parentVariableSet": {"href": "/mdr/adam/adam-occds-1-0/datastructures/OCCDS/varsets/Timing", "title": "Timing Variables", "type": "Variable Set"}, "priorVersion": {"href": "/mdr/adam/adam-adae-1-0/datastructures/ADAE/variables/ASTDT", "title": "Analysis Start Date", "type": "Analysis Variable"}, "self": {"href": "/mdr/adam/adam-occds-1-0/datastructures/OCCDS/variables/ASTDT", "title": "Analysis Start Date", "type": "Analysis Variable"}}, "core": "Cond", "description": "Created from converting XX.--STDTC from character ISO8601 format to numeric date format, applying imputation rules as specified in the SAP or metadata.\nConditional on whether start date is pertinent for study and is populated in SDTM.", "label": "Analysis Start Date", "name": "ASTDT", "ordinal": "29", "simpleDatatype": "Num"}, {"_links": {"parentDatastructure": {"href": "/mdr/adam/adam-occds-1-0/datastructures/OCCDS", "title": "Occurrence Data Structure", "type": "Data Structure"}, "parentProduct": {"href": "/mdr/adam/adam-occds-1-0", "title": "ADaM Structure for Occurrence Data (OCCDS) Version 1.0", "type": "Implementation Guide"}, "parentVariableSet": {"href": "/mdr/adam/adam-occds-1-0/datastructures/OCCDS/varsets/Timing", "title": "Timing Variables", "type": "Variable Set"}, "self": {"href": "/mdr/adam/adam-occds-1-0/datastructures/OCCDS/variables/ASTTM", "title": "Analysis Start Time", "type": "Analysis Variable"}}, "core": "Cond", "description": "Created from converting XX.--STDTC from character ISO8601 format to numeric time format, applying imputation rules as specified in the SAP or metadata.\nConditional on whether start time is pertinent for study and is populated in SDTM.", "label": "Analysis Start Time", "name": "ASTTM", "ordinal": "30", "simpleDatatype": "Num"}, {"_links": {"parentDatastructure": {"href": "/mdr/adam/adam-occds-1-0/datastructures/OCCDS", "title": "Occurrence Data Structure", "type": "Data Structure"}, "parentProduct": {"href": "/mdr/adam/adam-occds-1-0", "title": "ADaM Structure for Occurrence Data (OCCDS) Version 1.0", "type": "Implementation Guide"}, "parentVariableSet": {"href": "/mdr/adam/adam-occds-1-0/datastructures/OCCDS/varsets/Timing", "title": "Timing Variables", "type": "Variable Set"}, "priorVersion": {"href": "/mdr/adam/adam-adae-1-0/datastructures/ADAE/variables/ASTDTM", "title": "Analysis Start Date/Time", "type": "Analysis Variable"}, "self": {"href": "/mdr/adam/adam-occds-1-0/datastructures/OCCDS/variables/ASTDTM", "title": "Analysis Start Date/Time", "type": "Analysis Variable"}}, "core": "Cond", "description": "Created from converting XX.--STDTC from character ISO8601 format to numeric date-time format, applying imputation rules as specified in the SAP or metadata.\nConditional on whether start date-time is pertinent for study and is populated in SDTM.", "label": "Analysis Start Date/Time", "name": "ASTDTM", "ordinal": "31", "simpleDatatype": "Num"}, {"_links": {"codelist": [{"href": "/mdr/root/ct/adamct/codelists/C81223", "title": "Version-agnostic anchor resource for codelist C81223", "type": "Root Value Domain"}], "parentDatastructure": {"href": "/mdr/adam/adam-occds-1-0/datastructures/OCCDS", "title": "Occurrence Data Structure", "type": "Data Structure"}, "parentProduct": {"href": "/mdr/adam/adam-occds-1-0", "title": "ADaM Structure for Occurrence Data (OCCDS) Version 1.0", "type": "Implementation Guide"}, "parentVariableSet": {"href": "/mdr/adam/adam-occds-1-0/datastructures/OCCDS/varsets/Timing", "title": "Timing Variables", "type": "Variable Set"}, "priorVersion": {"href": "/mdr/adam/adam-adae-1-0/datastructures/ADAE/variables/ASTDTF", "title": "Analysis Start Date Imputation Flag", "type": "Analysis Variable"}, "self": {"href": "/mdr/adam/adam-occds-1-0/datastructures/OCCDS/variables/ASTDTF", "title": "Analysis Start Date Imputation Flag", "type": "Analysis Variable"}}, "codelistSubmissionValues": ["DATEFL"], "core": "Cond", "description": "Created during conversion of XX.--STDTC from character to numeric. Imputation flags are described in the ADaM Analysis Data Model Implementation Guide (ADaMIG) V1.1[2] General Timing Variable Conventions.\nConditional on whether any imputation is done for the start date.", "label": "Analysis Start Date Imputation Flag", "name": "ASTDTF", "ordinal": "32", "simpleDatatype": "Char"}, {"_links": {"codelist": [{"href": "/mdr/root/ct/adamct/codelists/C81226", "title": "Version-agnostic anchor resource for codelist C81226", "type": "Root Value Domain"}], "parentDatastructure": {"href": "/mdr/adam/adam-occds-1-0/datastructures/OCCDS", "title": "Occurrence Data Structure", "type": "Data Structure"}, "parentProduct": {"href": "/mdr/adam/adam-occds-1-0", "title": "ADaM Structure for Occurrence Data (OCCDS) Version 1.0", "type": "Implementation Guide"}, "parentVariableSet": {"href": "/mdr/adam/adam-occds-1-0/datastructures/OCCDS/varsets/Timing", "title": "Timing Variables", "type": "Variable Set"}, "priorVersion": {"href": "/mdr/adam/adam-adae-1-0/datastructures/ADAE/variables/ASTTMF", "title": "Analysis Start Time Imputation Flag", "type": "Analysis Variable"}, "self": {"href": "/mdr/adam/adam-occds-1-0/datastructures/OCCDS/variables/ASTTMF", "title": "Analysis Start Time Imputation Flag", "type": "Analysis Variable"}}, "codelistSubmissionValues": ["TIMEFL"], "core": "Cond", "description": "Created during conversion of XX.--STDTC from character to numeric. Imputation flags are described in the ADaM Analysis Data Model Implementation Guide (ADaMIG) V1.1[2] General Timing Variable Conventions.\nConditional on whether any imputation is done for the start time.", "label": "Analysis Start Time Imputation Flag", "name": "ASTTMF", "ordinal": "33", "simpleDatatype": "Char"}, {"_links": {"parentDatastructure": {"href": "/mdr/adam/adam-occds-1-0/datastructures/OCCDS", "title": "Occurrence Data Structure", "type": "Data Structure"}, "parentProduct": {"href": "/mdr/adam/adam-occds-1-0", "title": "ADaM Structure for Occurrence Data (OCCDS) Version 1.0", "type": "Implementation Guide"}, "parentVariableSet": {"href": "/mdr/adam/adam-occds-1-0/datastructures/OCCDS/varsets/Timing", "title": "Timing Variables", "type": "Variable Set"}, "self": {"href": "/mdr/adam/adam-occds-1-0/datastructures/OCCDS/variables/--ENDTC", "title": "End Date/Time of Observation", "type": "Analysis Variable"}}, "core": "Cond", "describedValueDomain": "ISO 8601", "description": "Copied from XX.--ENDTC\nThis would be copied from the SDTM domain XX.\nConditional on whether end date is pertinent for study and is populated in SDTM.", "label": "End Date/Time of Observation", "name": "--ENDTC", "ordinal": "34", "simpleDatatype": "Char"}, {"_links": {"parentDatastructure": {"href": "/mdr/adam/adam-occds-1-0/datastructures/OCCDS", "title": "Occurrence Data Structure", "type": "Data Structure"}, "parentProduct": {"href": "/mdr/adam/adam-occds-1-0", "title": "ADaM Structure for Occurrence Data (OCCDS) Version 1.0", "type": "Implementation Guide"}, "parentVariableSet": {"href": "/mdr/adam/adam-occds-1-0/datastructures/OCCDS/varsets/Timing", "title": "Timing Variables", "type": "Variable Set"}, "priorVersion": {"href": "/mdr/adam/adam-adae-1-0/datastructures/ADAE/variables/AENDT", "title": "Analysis End Date", "type": "Analysis Variable"}, "self": {"href": "/mdr/adam/adam-occds-1-0/datastructures/OCCDS/variables/AENDT", "title": "Analysis End Date", "type": "Analysis Variable"}}, "core": "Cond", "description": "Created from converting XX.--ENDTC from character ISO8601 format to numeric date format, applying imputation rules as specified in the SAP or metadata.\nConditional on whether end date is pertinent for study and is populated in SDTM.", "label": "Analysis End Date", "name": "AENDT", "ordinal": "35", "simpleDatatype": "Num"}, {"_links": {"parentDatastructure": {"href": "/mdr/adam/adam-occds-1-0/datastructures/OCCDS", "title": "Occurrence Data Structure", "type": "Data Structure"}, "parentProduct": {"href": "/mdr/adam/adam-occds-1-0", "title": "ADaM Structure for Occurrence Data (OCCDS) Version 1.0", "type": "Implementation Guide"}, "parentVariableSet": {"href": "/mdr/adam/adam-occds-1-0/datastructures/OCCDS/varsets/Timing", "title": "Timing Variables", "type": "Variable Set"}, "self": {"href": "/mdr/adam/adam-occds-1-0/datastructures/OCCDS/variables/AENTM", "title": "Analysis End Time", "type": "Analysis Variable"}}, "core": "Cond", "description": "Created from converting XX.--ENDTC from character ISO8601 format to numeric time format, applying imputation rules as specified in the SAP or metadata.\nConditional on whether end time is pertinent for study and is populated in SDTM.", "label": "Analysis End Time", "name": "AENTM", "ordinal": "36", "simpleDatatype": "Num"}, {"_links": {"parentDatastructure": {"href": "/mdr/adam/adam-occds-1-0/datastructures/OCCDS", "title": "Occurrence Data Structure", "type": "Data Structure"}, "parentProduct": {"href": "/mdr/adam/adam-occds-1-0", "title": "ADaM Structure for Occurrence Data (OCCDS) Version 1.0", "type": "Implementation Guide"}, "parentVariableSet": {"href": "/mdr/adam/adam-occds-1-0/datastructures/OCCDS/varsets/Timing", "title": "Timing Variables", "type": "Variable Set"}, "priorVersion": {"href": "/mdr/adam/adam-adae-1-0/datastructures/ADAE/variables/AENDTM", "title": "Analysis End Date/Time", "type": "Analysis Variable"}, "self": {"href": "/mdr/adam/adam-occds-1-0/datastructures/OCCDS/variables/AENDTM", "title": "Analysis End Date/Time", "type": "Analysis Variable"}}, "core": "Cond", "description": "Created from converting XX.--ENDTC from character ISO8601 format to numeric date-time format, applying imputation rules as specified in the SAP or metadata.\nConditional on whether end date-time is pertinent for study and is populated in SDTM.", "label": "Analysis End Date/Time", "name": "AENDTM", "ordinal": "37", "simpleDatatype": "Num"}, {"_links": {"codelist": [{"href": "/mdr/root/ct/adamct/codelists/C81223", "title": "Version-agnostic anchor resource for codelist C81223", "type": "Root Value Domain"}], "parentDatastructure": {"href": "/mdr/adam/adam-occds-1-0/datastructures/OCCDS", "title": "Occurrence Data Structure", "type": "Data Structure"}, "parentProduct": {"href": "/mdr/adam/adam-occds-1-0", "title": "ADaM Structure for Occurrence Data (OCCDS) Version 1.0", "type": "Implementation Guide"}, "parentVariableSet": {"href": "/mdr/adam/adam-occds-1-0/datastructures/OCCDS/varsets/Timing", "title": "Timing Variables", "type": "Variable Set"}, "priorVersion": {"href": "/mdr/adam/adam-adae-1-0/datastructures/ADAE/variables/AENDTF", "title": "Analysis End Date Imputation Flag", "type": "Analysis Variable"}, "self": {"href": "/mdr/adam/adam-occds-1-0/datastructures/OCCDS/variables/AENDTF", "title": "Analysis End Date Imputation Flag", "type": "Analysis Variable"}}, "codelistSubmissionValues": ["DATEFL"], "core": "Cond", "description": "Created during conversion of XX.--ENDTC from character to numeric. Imputation flags are described in the ADaM Analysis Data Model Implementation Guide (ADaMIG) V1.1[2] General Timing Variable Conventions.\nConditional on whether any imputation is done for the end date.", "label": "Analysis End Date Imputation Flag", "name": "AENDTF", "ordinal": "38", "simpleDatatype": "Char"}, {"_links": {"codelist": [{"href": "/mdr/root/ct/adamct/codelists/C81226", "title": "Version-agnostic anchor resource for codelist C81226", "type": "Root Value Domain"}], "parentDatastructure": {"href": "/mdr/adam/adam-occds-1-0/datastructures/OCCDS", "title": "Occurrence Data Structure", "type": "Data Structure"}, "parentProduct": {"href": "/mdr/adam/adam-occds-1-0", "title": "ADaM Structure for Occurrence Data (OCCDS) Version 1.0", "type": "Implementation Guide"}, "parentVariableSet": {"href": "/mdr/adam/adam-occds-1-0/datastructures/OCCDS/varsets/Timing", "title": "Timing Variables", "type": "Variable Set"}, "priorVersion": {"href": "/mdr/adam/adam-adae-1-0/datastructures/ADAE/variables/AENTMF", "title": "Analysis End Time Imputation Flag", "type": "Analysis Variable"}, "self": {"href": "/mdr/adam/adam-occds-1-0/datastructures/OCCDS/variables/AENTMF", "title": "Analysis End Time Imputation Flag", "type": "Analysis Variable"}}, "codelistSubmissionValues": ["TIMEFL"], "core": "Cond", "description": "Created during conversion of XX.--ENDTC from character to numeric. Imputation flags are described in the ADaM Analysis Data Model Implementation Guide (ADaMIG) V1.1[2] General Timing Variable Conventions.\nConditional on whether any imputation is done for the end time.", "label": "Analysis End Time Imputation Flag", "name": "AENTMF", "ordinal": "39", "simpleDatatype": "Char"}, {"_links": {"parentDatastructure": {"href": "/mdr/adam/adam-occds-1-0/datastructures/OCCDS", "title": "Occurrence Data Structure", "type": "Data Structure"}, "parentProduct": {"href": "/mdr/adam/adam-occds-1-0", "title": "ADaM Structure for Occurrence Data (OCCDS) Version 1.0", "type": "Implementation Guide"}, "parentVariableSet": {"href": "/mdr/adam/adam-occds-1-0/datastructures/OCCDS/varsets/Timing", "title": "Timing Variables", "type": "Variable Set"}, "priorVersion": {"href": "/mdr/adam/adam-adae-1-0/datastructures/ADAE/variables/ASTDY", "title": "Analysis Start Relative Day", "type": "Analysis Variable"}, "self": {"href": "/mdr/adam/adam-occds-1-0/datastructures/OCCDS/variables/ASTDY", "title": "Analysis Start Relative Day", "type": "Analysis Variable"}}, "core": "Cond", "description": "Example derivation:\nASTDT - ADSL.TRTSDT + 1 if ASTDT >= TRTSDT, else ASTDT - ADSL.TRTSDT if ASTDT< TRTSDT\nThis variable may instead be copied from --STDY.\nConditional on whether analysis start relative day is pertinent to the study.", "label": "Analysis Start Relative Day", "name": "ASTDY", "ordinal": "40", "simpleDatatype": "Num"}, {"_links": {"parentDatastructure": {"href": "/mdr/adam/adam-occds-1-0/datastructures/OCCDS", "title": "Occurrence Data Structure", "type": "Data Structure"}, "parentProduct": {"href": "/mdr/adam/adam-occds-1-0", "title": "ADaM Structure for Occurrence Data (OCCDS) Version 1.0", "type": "Implementation Guide"}, "parentVariableSet": {"href": "/mdr/adam/adam-occds-1-0/datastructures/OCCDS/varsets/Timing", "title": "Timing Variables", "type": "Variable Set"}, "self": {"href": "/mdr/adam/adam-occds-1-0/datastructures/OCCDS/variables/--STDY", "title": "Study Day of Start of Observation", "type": "Analysis Variable"}}, "core": "Perm", "description": "XX.--STDY\nThis would be copied from the SDTM domain XX.\nASTDY may differ from --STDY due to date imputation and the option in ADaM to use a reference date other than SDTM's RFSTDTC. Including XX.--STDY in addition to ASTDY adds traceability.", "label": "Study Day of Start of Observation", "name": "--STDY", "ordinal": "41", "simpleDatatype": "Num"}, {"_links": {"parentDatastructure": {"href": "/mdr/adam/adam-occds-1-0/datastructures/OCCDS", "title": "Occurrence Data Structure", "type": "Data Structure"}, "parentProduct": {"href": "/mdr/adam/adam-occds-1-0", "title": "ADaM Structure for Occurrence Data (OCCDS) Version 1.0", "type": "Implementation Guide"}, "parentVariableSet": {"href": "/mdr/adam/adam-occds-1-0/datastructures/OCCDS/varsets/Timing", "title": "Timing Variables", "type": "Variable Set"}, "priorVersion": {"href": "/mdr/adam/adam-adae-1-0/datastructures/ADAE/variables/AENDY", "title": "Analysis End Relative Day", "type": "Analysis Variable"}, "self": {"href": "/mdr/adam/adam-occds-1-0/datastructures/OCCDS/variables/AENDY", "title": "Analysis End Relative Day", "type": "Analysis Variable"}}, "core": "Perm", "description": "Example derivation:\nAENDT - ADSL.TRTSDT + 1 if AENDT >= TRTSDT, else AENDT - ADSL.TRTSDT if AENDT < TRTSDT\nThis variable may instead be copied from --ENDY.", "label": "Analysis End Relative Day", "name": "AENDY", "ordinal": "42", "simpleDatatype": "Num"}, {"_links": {"parentDatastructure": {"href": "/mdr/adam/adam-occds-1-0/datastructures/OCCDS", "title": "Occurrence Data Structure", "type": "Data Structure"}, "parentProduct": {"href": "/mdr/adam/adam-occds-1-0", "title": "ADaM Structure for Occurrence Data (OCCDS) Version 1.0", "type": "Implementation Guide"}, "parentVariableSet": {"href": "/mdr/adam/adam-occds-1-0/datastructures/OCCDS/varsets/Timing", "title": "Timing Variables", "type": "Variable Set"}, "self": {"href": "/mdr/adam/adam-occds-1-0/datastructures/OCCDS/variables/--ENDY", "title": "Study Day of End of Observation", "type": "Analysis Variable"}}, "core": "Perm", "description": "XX.--ENDY\nThis would be copied from the SDTM domain XX.\nAENDY may differ from --ENDY due to date imputation and the option in ADaM to use a reference date other than SDTM's RFSTDTC. Including XX.--ENDY in addition to AENDY adds traceability.", "label": "Study Day of End of Observation", "name": "--ENDY", "ordinal": "43", "simpleDatatype": "Num"}, {"_links": {"parentDatastructure": {"href": "/mdr/adam/adam-occds-1-0/datastructures/OCCDS", "title": "Occurrence Data Structure", "type": "Data Structure"}, "parentProduct": {"href": "/mdr/adam/adam-occds-1-0", "title": "ADaM Structure for Occurrence Data (OCCDS) Version 1.0", "type": "Implementation Guide"}, "parentVariableSet": {"href": "/mdr/adam/adam-occds-1-0/datastructures/OCCDS/varsets/Timing", "title": "Timing Variables", "type": "Variable Set"}, "priorVersion": {"href": "/mdr/adam/adam-adae-1-0/datastructures/ADAE/variables/ADURN", "title": "AE Duration (N)", "type": "Analysis Variable"}, "self": {"href": "/mdr/adam/adam-occds-1-0/datastructures/OCCDS/variables/ADURN", "title": "Analysis Duration (N)", "type": "Analysis Variable"}}, "core": "Perm", "description": "Derive from ASTDT (or ASTDTM) and AENDT (or AENDTM).", "label": "Analysis Duration (N)", "name": "ADURN", "ordinal": "44", "simpleDatatype": "Num"}, {"_links": {"codelist": [{"href": "/mdr/root/ct/sdtmct/codelists/C71620", "title": "Version-agnostic anchor resource for codelist C71620", "type": "Root Value Domain"}], "parentDatastructure": {"href": "/mdr/adam/adam-occds-1-0/datastructures/OCCDS", "title": "Occurrence Data Structure", "type": "Data Structure"}, "parentProduct": {"href": "/mdr/adam/adam-occds-1-0", "title": "ADaM Structure for Occurrence Data (OCCDS) Version 1.0", "type": "Implementation Guide"}, "parentVariableSet": {"href": "/mdr/adam/adam-occds-1-0/datastructures/OCCDS/varsets/Timing", "title": "Timing Variables", "type": "Variable Set"}, "priorVersion": {"href": "/mdr/adam/adam-adae-1-0/datastructures/ADAE/variables/ADURU", "title": "AE Duration Units", "type": "Analysis Variable"}, "self": {"href": "/mdr/adam/adam-occds-1-0/datastructures/OCCDS/variables/ADURU", "title": "Analysis Duration Units", "type": "Analysis Variable"}}, "codelistSubmissionValues": ["UNIT"], "core": "Cond", "description": "Conditional on whether ADURN is included and units are not included in the label of ADURN.", "label": "Analysis Duration Units", "name": "ADURU", "ordinal": "45", "simpleDatatype": "Char"}, {"_links": {"parentDatastructure": {"href": "/mdr/adam/adam-occds-1-0/datastructures/OCCDS", "title": "Occurrence Data Structure", "type": "Data Structure"}, "parentProduct": {"href": "/mdr/adam/adam-occds-1-0", "title": "ADaM Structure for Occurrence Data (OCCDS) Version 1.0", "type": "Implementation Guide"}, "parentVariableSet": {"href": "/mdr/adam/adam-occds-1-0/datastructures/OCCDS/varsets/Timing", "title": "Timing Variables", "type": "Variable Set"}, "self": {"href": "/mdr/adam/adam-occds-1-0/datastructures/OCCDS/variables/--DUR", "title": "Duration of XX", "type": "Analysis Variable"}}, "core": "Perm", "describedValueDomain": "ISO 8601", "description": "XX.--DUR\nThis would be copied from the SDTM domain XX.\nBecause --DUR is a collected field and ADURN is derived, the values will often differ. Including XX.--DUR in addition to ADURN adds traceability.", "label": "Duration of XX", "name": "--DUR", "ordinal": "46", "simpleDatatype": "Char"}, {"_links": {"parentDatastructure": {"href": "/mdr/adam/adam-occds-1-0/datastructures/OCCDS", "title": "Occurrence Data Structure", "type": "Data Structure"}, "parentProduct": {"href": "/mdr/adam/adam-occds-1-0", "title": "ADaM Structure for Occurrence Data (OCCDS) Version 1.0", "type": "Implementation Guide"}, "parentVariableSet": {"href": "/mdr/adam/adam-occds-1-0/datastructures/OCCDS/varsets/Timing", "title": "Timing Variables", "type": "Variable Set"}, "priorVersion": {"href": "/mdr/adam/adam-adae-1-0/datastructures/ADAE/variables/APERIOD", "title": "Period", "type": "Analysis Variable"}, "self": {"href": "/mdr/adam/adam-occds-1-0/datastructures/OCCDS/variables/APERIOD", "title": "Period", "type": "Analysis Variable"}}, "core": "Perm", "description": "APERIOD is a record-level timing variable that represents the analysis period within the study associated with the record for analysis purposes. The value of APERIOD (if populated) must be one of the xx values found in the ADSL TRTxxP variables. See the ADaM Implementation Guide version 1.1[2]for more information on this variable.", "label": "Period", "name": "APERIOD", "ordinal": "47", "simpleDatatype": "Num"}, {"_links": {"parentDatastructure": {"href": "/mdr/adam/adam-occds-1-0/datastructures/OCCDS", "title": "Occurrence Data Structure", "type": "Data Structure"}, "parentProduct": {"href": "/mdr/adam/adam-occds-1-0", "title": "ADaM Structure for Occurrence Data (OCCDS) Version 1.0", "type": "Implementation Guide"}, "parentVariableSet": {"href": "/mdr/adam/adam-occds-1-0/datastructures/OCCDS/varsets/Timing", "title": "Timing Variables", "type": "Variable Set"}, "priorVersion": {"href": "/mdr/adam/adam-adae-1-0/datastructures/ADAE/variables/APERIODC", "title": "Period (C)", "type": "Analysis Variable"}, "self": {"href": "/mdr/adam/adam-occds-1-0/datastructures/OCCDS/variables/APERIODC", "title": "Period (C)", "type": "Analysis Variable"}}, "core": "Perm", "description": "Text characterizing to which period the record belongs. One-to-one map to APERIOD.", "label": "Period (C)", "name": "APERIODC", "ordinal": "48", "simpleDatatype": "Char"}, {"_links": {"parentDatastructure": {"href": "/mdr/adam/adam-occds-1-0/datastructures/OCCDS", "title": "Occurrence Data Structure", "type": "Data Structure"}, "parentProduct": {"href": "/mdr/adam/adam-occds-1-0", "title": "ADaM Structure for Occurrence Data (OCCDS) Version 1.0", "type": "Implementation Guide"}, "parentVariableSet": {"href": "/mdr/adam/adam-occds-1-0/datastructures/OCCDS/varsets/Timing", "title": "Timing Variables", "type": "Variable Set"}, "priorVersion": {"href": "/mdr/adam/adam-adae-1-0/datastructures/ADAE/variables/APHASE", "title": "Phase", "type": "Analysis Variable"}, "self": {"href": "/mdr/adam/adam-occds-1-0/datastructures/OCCDS/variables/APHASE", "title": "Phase", "type": "Analysis Variable"}}, "core": "Perm", "description": "APHASE is a categorization of timing within a study, for example a higher-level categorization of APERIOD or an analysis epoch. For example, APHASE could describe spans of time for SCREENING, ON TREATMENT, and FOLLOW-UP. See the ADaM Implementation Guide version 1.1[2]for more information on this variable.", "label": "Phase", "name": "APHASE", "ordinal": "49", "simpleDatatype": "Char"}], "label": "Timing Variables", "name": "Timing Variables", "ordinal": "5"}, {"_links": {"parentDatastructure": {"href": "/mdr/adam/adam-occds-1-0/datastructures/OCCDS", "title": "Occurrence Data Structure", "type": "Data Structure"}, "parentProduct": {"href": "/mdr/adam/adam-occds-1-0", "title": "ADaM Structure for Occurrence Data (OCCDS) Version 1.0", "type": "Implementation Guide"}, "self": {"href": "/mdr/adam/adam-occds-1-0/datastructures/OCCDS/varsets/SDTMIndicator", "title": "SDTM Indicator Variables", "type": "Variable Set"}}, "analysisVariables": [{"_links": {"parentDatastructure": {"href": "/mdr/adam/adam-occds-1-0/datastructures/OCCDS", "title": "Occurrence Data Structure", "type": "Data Structure"}, "parentProduct": {"href": "/mdr/adam/adam-occds-1-0", "title": "ADaM Structure for Occurrence Data (OCCDS) Version 1.0", "type": "Implementation Guide"}, "parentVariableSet": {"href": "/mdr/adam/adam-occds-1-0/datastructures/OCCDS/varsets/SDTMIndicator", "title": "SDTM Indicator Variables", "type": "Variable Set"}, "self": {"href": "/mdr/adam/adam-occds-1-0/datastructures/OCCDS/variables/--OCCUR", "title": "XX Occurrence", "type": "Analysis Variable"}}, "core": "Cond", "description": "Copied from XX.--OCCUR\nThis would be copied from the SDTM domain XX.\nConditional on whether this content is pertinent for analysis and is populated in SDTM.", "label": "XX Occurrence", "name": "--OCCUR", "ordinal": "50", "simpleDatatype": "Char", "valueList": ["N", "Y"]}, {"_links": {"parentDatastructure": {"href": "/mdr/adam/adam-occds-1-0/datastructures/OCCDS", "title": "Occurrence Data Structure", "type": "Data Structure"}, "parentProduct": {"href": "/mdr/adam/adam-occds-1-0", "title": "ADaM Structure for Occurrence Data (OCCDS) Version 1.0", "type": "Implementation Guide"}, "parentVariableSet": {"href": "/mdr/adam/adam-occds-1-0/datastructures/OCCDS/varsets/SDTMIndicator", "title": "SDTM Indicator Variables", "type": "Variable Set"}, "self": {"href": "/mdr/adam/adam-occds-1-0/datastructures/OCCDS/variables/--PRESP", "title": "XX Pre-Specified", "type": "Analysis Variable"}}, "core": "Cond", "description": "Copied from XX.--PRESP\nThis would be copied from the SDTM domain XX.\nConditional on whether this content is pertinent for analysis and is populated in SDTM.", "label": "XX Pre-Specified", "name": "--PRESP", "ordinal": "51", "simpleDatatype": "Char", "valueList": ["N", "Y"]}], "label": "SDTM Indicator Variables", "name": "SDTM Indicator Variables", "ordinal": "6"}, {"_links": {"parentDatastructure": {"href": "/mdr/adam/adam-occds-1-0/datastructures/OCCDS", "title": "Occurrence Data Structure", "type": "Data Structure"}, "parentProduct": {"href": "/mdr/adam/adam-occds-1-0", "title": "ADaM Structure for Occurrence Data (OCCDS) Version 1.0", "type": "Implementation Guide"}, "self": {"href": "/mdr/adam/adam-occds-1-0/datastructures/OCCDS/varsets/Indicator", "title": "OCCDS Indicator Variables", "type": "Variable Set"}}, "analysisVariables": [{"_links": {"parentDatastructure": {"href": "/mdr/adam/adam-occds-1-0/datastructures/OCCDS", "title": "Occurrence Data Structure", "type": "Data Structure"}, "parentProduct": {"href": "/mdr/adam/adam-occds-1-0", "title": "ADaM Structure for Occurrence Data (OCCDS) Version 1.0", "type": "Implementation Guide"}, "parentVariableSet": {"href": "/mdr/adam/adam-occds-1-0/datastructures/OCCDS/varsets/Indicator", "title": "OCCDS Indicator Variables", "type": "Variable Set"}, "priorVersion": {"href": "/mdr/adam/adam-adae-1-0/datastructures/ADAE/variables/ANLzzFL", "title": "Analysis Record Flag zz", "type": "Analysis Variable"}, "self": {"href": "/mdr/adam/adam-occds-1-0/datastructures/OCCDS/variables/ANLzzFL", "title": "Analysis Flag zz", "type": "Analysis Variable"}}, "core": "Cond", "description": "The ANLzzFL flag is useful in many circumstances; an example is when there is more than one coding path included for analysis, in which case separate analysis flags could be used to denote primary coding path or the records used for analysis from each coding path.\nSee the ADaM Implementation Guide version 1.1[2] for more information on this flag variable.\nThis variable is conditional on whether analysis records flags are needed for analysis.", "label": "Analysis Flag zz", "name": "ANLzzFL", "ordinal": "52", "simpleDatatype": "Char", "valueList": ["Y"]}], "label": "OCCDS Indicator Variables", "name": "OCCDS Indicator Variables", "ordinal": "7"}, {"_links": {"parentDatastructure": {"href": "/mdr/adam/adam-occds-1-0/datastructures/OCCDS", "title": "Occurrence Data Structure", "type": "Data Structure"}, "parentProduct": {"href": "/mdr/adam/adam-occds-1-0", "title": "ADaM Structure for Occurrence Data (OCCDS) Version 1.0", "type": "Implementation Guide"}, "self": {"href": "/mdr/adam/adam-occds-1-0/datastructures/OCCDS/varsets/AdverseEventsIndicator", "title": "Adverse Events Indicator Variables ", "type": "Variable Set"}}, "analysisVariables": [{"_links": {"parentDatastructure": {"href": "/mdr/adam/adam-occds-1-0/datastructures/OCCDS", "title": "Occurrence Data Structure", "type": "Data Structure"}, "parentProduct": {"href": "/mdr/adam/adam-occds-1-0", "title": "ADaM Structure for Occurrence Data (OCCDS) Version 1.0", "type": "Implementation Guide"}, "parentVariableSet": {"href": "/mdr/adam/adam-occds-1-0/datastructures/OCCDS/varsets/AdverseEventsIndicator", "title": "Adverse Events Indicator Variables ", "type": "Variable Set"}, "priorVersion": {"href": "/mdr/adam/adam-adae-1-0/datastructures/ADAE/variables/TRTEMFL", "title": "Treatment Emergent Analysis Flag", "type": "Analysis Variable"}, "self": {"href": "/mdr/adam/adam-occds-1-0/datastructures/OCCDS/variables/TRTEMFL", "title": "Treatment Emergent Analysis Flag", "type": "Analysis Variable"}}, "core": "Cond", "description": "Treatment emergent flag as defined for analysis. Variable TRTEMFL is to be used for any analysis of treatment-emergent AEs. This variable is conditional on whether the concept of treatment emergent is a key feature of the AE analyses.\nExample derivation:\nIf ADSL.TRTSDT<=ASTDT<=ADSL.TRTEDT + x days then TRTEMFL='Y'\nThe number x is defined by the producer and often incorporates the known half-life of the drug. It should be consistent with variable APHASE (described above) if APHASE is also used.", "label": "Treatment Emergent Analysis Flag", "name": "TRTEMFL", "ordinal": "53", "simpleDatatype": "Char", "valueList": ["Y"]}, {"_links": {"parentDatastructure": {"href": "/mdr/adam/adam-occds-1-0/datastructures/OCCDS", "title": "Occurrence Data Structure", "type": "Data Structure"}, "parentProduct": {"href": "/mdr/adam/adam-occds-1-0", "title": "ADaM Structure for Occurrence Data (OCCDS) Version 1.0", "type": "Implementation Guide"}, "parentVariableSet": {"href": "/mdr/adam/adam-occds-1-0/datastructures/OCCDS/varsets/AdverseEventsIndicator", "title": "Adverse Events Indicator Variables ", "type": "Variable Set"}, "priorVersion": {"href": "/mdr/adam/adam-adae-1-0/datastructures/ADAE/variables/AETRTEM", "title": "Treatment Emergent Flag", "type": "Analysis Variable"}, "self": {"href": "/mdr/adam/adam-occds-1-0/datastructures/OCCDS/variables/AETRTEM", "title": "Treatment Emergent Flag", "type": "Analysis Variable"}}, "core": "Perm", "description": "Treatment emergent flag from SDTM, if available. See the SDTMIG version 3.2[3]for more information.\nDerivation:\nSUPPAE.QVAL where QNAM='AETRTEM'.\nTRTEMFL may differ from AETRTEM due to different definitions, date imputation and other analysis rules. Including AETRTEM in addition to TRTEMFL will add traceability.", "label": "Treatment Emergent Flag", "name": "AETRTEM", "ordinal": "54", "simpleDatatype": "Char", "valueList": ["N", "Y"]}], "label": "Adverse Events Indicator Variables ", "name": "Adverse Events Indicator Variables ", "ordinal": "8"}, {"_links": {"parentDatastructure": {"href": "/mdr/adam/adam-occds-1-0/datastructures/OCCDS", "title": "Occurrence Data Structure", "type": "Data Structure"}, "parentProduct": {"href": "/mdr/adam/adam-occds-1-0", "title": "ADaM Structure for Occurrence Data (OCCDS) Version 1.0", "type": "Implementation Guide"}, "self": {"href": "/mdr/adam/adam-occds-1-0/datastructures/OCCDS/varsets/CMIndicator", "title": "Concomitant Medications Indicator Variables", "type": "Variable Set"}}, "analysisVariables": [{"_links": {"parentDatastructure": {"href": "/mdr/adam/adam-occds-1-0/datastructures/OCCDS", "title": "Occurrence Data Structure", "type": "Data Structure"}, "parentProduct": {"href": "/mdr/adam/adam-occds-1-0", "title": "ADaM Structure for Occurrence Data (OCCDS) Version 1.0", "type": "Implementation Guide"}, "parentVariableSet": {"href": "/mdr/adam/adam-occds-1-0/datastructures/OCCDS/varsets/CMIndicator", "title": "Concomitant Medications Indicator Variables", "type": "Variable Set"}, "self": {"href": "/mdr/adam/adam-occds-1-0/datastructures/OCCDS/variables/ONTRTFL", "title": "On Treatment\nRecord Flag", "type": "Analysis Variable"}}, "core": "Cond", "description": "Character indicator of whether the observation occurred while the subject was on treatment.\nExample derivation:\nIf ADSL.TRTSDT <= ASTDT <= ADSL.TRTEDT then ONTRTFL = 'Y'\nThis variable is conditional on whether the concept of on-treatment is a feature of the study and used in analysis.", "label": "On Treatment\nRecord Flag", "name": "ONTRTFL", "ordinal": "55", "simpleDatatype": "Char", "valueList": ["Y"]}], "label": "Concomitant Medications Indicator Variables", "name": "Concomitant Medications Indicator Variables", "ordinal": "9"}, {"_links": {"parentDatastructure": {"href": "/mdr/adam/adam-occds-1-0/datastructures/OCCDS", "title": "Occurrence Data Structure", "type": "Data Structure"}, "parentProduct": {"href": "/mdr/adam/adam-occds-1-0", "title": "ADaM Structure for Occurrence Data (OCCDS) Version 1.0", "type": "Implementation Guide"}, "self": {"href": "/mdr/adam/adam-occds-1-0/datastructures/OCCDS/varsets/AECMIndicator", "title": "Adverse Events and Concomitant Medications Indicator Variables", "type": "Variable Set"}}, "analysisVariables": [{"_links": {"parentDatastructure": {"href": "/mdr/adam/adam-occds-1-0/datastructures/OCCDS", "title": "Occurrence Data Structure", "type": "Data Structure"}, "parentProduct": {"href": "/mdr/adam/adam-occds-1-0", "title": "ADaM Structure for Occurrence Data (OCCDS) Version 1.0", "type": "Implementation Guide"}, "parentVariableSet": {"href": "/mdr/adam/adam-occds-1-0/datastructures/OCCDS/varsets/AECMIndicator", "title": "Adverse Events and Concomitant Medications Indicator Variables", "type": "Variable Set"}, "priorVersion": {"href": "/mdr/adam/adam-adae-1-0/datastructures/ADAE/variables/PREFL", "title": "Pre-treatment Flag", "type": "Analysis Variable"}, "self": {"href": "/mdr/adam/adam-occds-1-0/datastructures/OCCDS/variables/PREFL", "title": "Pre-treatment Flag", "type": "Analysis Variable"}}, "core": "Cond", "description": "Character indicator of whether the observation occurred before the subject started treatment.\nExample derivation:\nIf ASTDT < ADSL.TRTSDT then PREFL='Y'\nThis variable is conditional on whether the concept of pre-treatment is a feature of the study and used in analysis.", "label": "Pre-treatment Flag", "name": "PREFL", "ordinal": "56", "simpleDatatype": "Char", "valueList": ["Y"]}, {"_links": {"parentDatastructure": {"href": "/mdr/adam/adam-occds-1-0/datastructures/OCCDS", "title": "Occurrence Data Structure", "type": "Data Structure"}, "parentProduct": {"href": "/mdr/adam/adam-occds-1-0", "title": "ADaM Structure for Occurrence Data (OCCDS) Version 1.0", "type": "Implementation Guide"}, "parentVariableSet": {"href": "/mdr/adam/adam-occds-1-0/datastructures/OCCDS/varsets/AECMIndicator", "title": "Adverse Events and Concomitant Medications Indicator Variables", "type": "Variable Set"}, "priorVersion": {"href": "/mdr/adam/adam-adae-1-0/datastructures/ADAE/variables/FUPFL", "title": "Follow-up Flag", "type": "Analysis Variable"}, "self": {"href": "/mdr/adam/adam-occds-1-0/datastructures/OCCDS/variables/FUPFL", "title": "Follow-up Flag", "type": "Analysis Variable"}}, "core": "Cond", "description": "Character indicator of whether the observation occurred while the subject was on follow-up.\nExample derivation:\nIf ASTDT > ADSL.TRTEDT then FUPFL='Y'\nThis variable is conditional on whether the concept of follow-up is a feature of the study and used in analysis.", "label": "Follow-up Flag", "name": "FUPFL", "ordinal": "57", "simpleDatatype": "Char", "valueList": ["Y"]}], "label": "Adverse Events and Concomitant Medications Indicator Variables", "name": "Adverse Events and Concomitant Medications Indicator Variables", "ordinal": "10"}, {"_links": {"parentDatastructure": {"href": "/mdr/adam/adam-occds-1-0/datastructures/OCCDS", "title": "Occurrence Data Structure", "type": "Data Structure"}, "parentProduct": {"href": "/mdr/adam/adam-occds-1-0", "title": "ADaM Structure for Occurrence Data (OCCDS) Version 1.0", "type": "Implementation Guide"}, "self": {"href": "/mdr/adam/adam-occds-1-0/datastructures/OCCDS/varsets/OccurrenceFlag", "title": "OCCDS Occurrence Flag Variables", "type": "Variable Set"}}, "analysisVariables": [{"_links": {"parentDatastructure": {"href": "/mdr/adam/adam-occds-1-0/datastructures/OCCDS", "title": "Occurrence Data Structure", "type": "Data Structure"}, "parentProduct": {"href": "/mdr/adam/adam-occds-1-0", "title": "ADaM Structure for Occurrence Data (OCCDS) Version 1.0", "type": "Implementation Guide"}, "parentVariableSet": {"href": "/mdr/adam/adam-occds-1-0/datastructures/OCCDS/varsets/OccurrenceFlag", "title": "OCCDS Occurrence Flag Variables", "type": "Variable Set"}, "priorVersion": {"href": "/mdr/adam/adam-adae-1-0/datastructures/ADAE/variables/AOCCFL", "title": "1st Occurrence of Any AE Flag", "type": "Analysis Variable"}, "self": {"href": "/mdr/adam/adam-occds-1-0/datastructures/OCCDS/variables/AOCCFL", "title": "1st Occurrence within Subject Flag", "type": "Analysis Variable"}}, "core": "Perm", "description": "Character indicator for the first occurrence of any event/intervention/finding within the subject.\nExample derivation: Sort the data in the required order and flag the first treatment emergent record for each subject.", "label": "1st Occurrence within Subject Flag", "name": "AOCCFL", "ordinal": "58", "simpleDatatype": "Char", "valueList": ["Y"]}, {"_links": {"parentDatastructure": {"href": "/mdr/adam/adam-occds-1-0/datastructures/OCCDS", "title": "Occurrence Data Structure", "type": "Data Structure"}, "parentProduct": {"href": "/mdr/adam/adam-occds-1-0", "title": "ADaM Structure for Occurrence Data (OCCDS) Version 1.0", "type": "Implementation Guide"}, "parentVariableSet": {"href": "/mdr/adam/adam-occds-1-0/datastructures/OCCDS/varsets/OccurrenceFlag", "title": "OCCDS Occurrence Flag Variables", "type": "Variable Set"}, "priorVersion": {"href": "/mdr/adam/adam-adae-1-0/datastructures/ADAE/variables/AOCCPFL", "title": "1st Occurrence of Preferred Term Flag", "type": "Analysis Variable"}, "self": {"href": "/mdr/adam/adam-occds-1-0/datastructures/OCCDS/variables/AOCCPFL", "title": "1st Occurrence of Preferred Term Flag", "type": "Analysis Variable"}}, "core": "Perm", "description": "Character indicator for the first occurrence of the preferred term within the subject.\nExample derivation: Sort the data in the required order and flag the first treatment emergent record for each --DECOD for each subject.", "label": "1st Occurrence of Preferred Term Flag", "name": "AOCCPFL", "ordinal": "59", "simpleDatatype": "Char", "valueList": ["Y"]}, {"_links": {"parentDatastructure": {"href": "/mdr/adam/adam-occds-1-0/datastructures/OCCDS", "title": "Occurrence Data Structure", "type": "Data Structure"}, "parentProduct": {"href": "/mdr/adam/adam-occds-1-0", "title": "ADaM Structure for Occurrence Data (OCCDS) Version 1.0", "type": "Implementation Guide"}, "parentVariableSet": {"href": "/mdr/adam/adam-occds-1-0/datastructures/OCCDS/varsets/OccurrenceFlag", "title": "OCCDS Occurrence Flag Variables", "type": "Variable Set"}, "priorVersion": {"href": "/mdr/adam/adam-adae-1-0/datastructures/ADAE/variables/AOCCIFL", "title": "1st Max Sev./Int. Occurrence Flag", "type": "Analysis Variable"}, "self": {"href": "/mdr/adam/adam-occds-1-0/datastructures/OCCDS/variables/AOCCIFL", "title": "1st Max Sev./Int. Occurrence Flag", "type": "Analysis Variable"}}, "core": "Perm", "description": "Character indicator for the first occurrence of the event/intervention/finding with the maximum severity/intensity within the subject.\nExample derivation: Sort the data in the required order and flag the first treatment emergent record for maximum severity for each subject.", "label": "1st Max Sev./Int. Occurrence Flag", "name": "AOCCIFL", "ordinal": "60", "simpleDatatype": "Char", "valueList": ["Y"]}, {"_links": {"parentDatastructure": {"href": "/mdr/adam/adam-occds-1-0/datastructures/OCCDS", "title": "Occurrence Data Structure", "type": "Data Structure"}, "parentProduct": {"href": "/mdr/adam/adam-occds-1-0", "title": "ADaM Structure for Occurrence Data (OCCDS) Version 1.0", "type": "Implementation Guide"}, "parentVariableSet": {"href": "/mdr/adam/adam-occds-1-0/datastructures/OCCDS/varsets/OccurrenceFlag", "title": "OCCDS Occurrence Flag Variables", "type": "Variable Set"}, "priorVersion": {"href": "/mdr/adam/adam-adae-1-0/datastructures/ADAE/variables/AOCCPIFL", "title": "1st Max Sev./Int. Occur Within PT Flag", "type": "Analysis Variable"}, "self": {"href": "/mdr/adam/adam-occds-1-0/datastructures/OCCDS/variables/AOCCPIFL", "title": "1st Max Sev./Int. Occur Within PT Flag", "type": "Analysis Variable"}}, "core": "Perm", "description": "Character indicator for the first occurrence of the maximum severity/intensity within the subject and preferred term.\nExample derivation: Sort the data in the required order and flag the first treatment emergent record for maximum severity within preferred term for each subject.", "label": "1st Max Sev./Int. Occur Within PT Flag", "name": "AOCCPIFL", "ordinal": "61", "simpleDatatype": "Char", "valueList": ["Y"]}, {"_links": {"parentDatastructure": {"href": "/mdr/adam/adam-occds-1-0/datastructures/OCCDS", "title": "Occurrence Data Structure", "type": "Data Structure"}, "parentProduct": {"href": "/mdr/adam/adam-occds-1-0", "title": "ADaM Structure for Occurrence Data (OCCDS) Version 1.0", "type": "Implementation Guide"}, "parentVariableSet": {"href": "/mdr/adam/adam-occds-1-0/datastructures/OCCDS/varsets/OccurrenceFlag", "title": "OCCDS Occurrence Flag Variables", "type": "Variable Set"}, "priorVersion": {"href": "/mdr/adam/adam-adae-1-0/datastructures/ADAE/variables/AOCCzzFL", "title": "1st Occurrence of ....", "type": "Analysis Variable"}, "self": {"href": "/mdr/adam/adam-occds-1-0/datastructures/OCCDS/variables/AOCCzzFL", "title": "1st Occurrence of ...", "type": "Analysis Variable"}}, "core": "Perm", "description": "Additional flag variables as needed for analysis. Derivation rules for these flags need to be described in the metadata.", "label": "1st Occurrence of ...", "name": "AOCCzzFL", "ordinal": "62", "simpleDatatype": "Char", "valueList": ["Y"]}], "label": "OCCDS Occurrence Flag Variables", "name": "OCCDS Occurrence Flag Variables", "ordinal": "11"}, {"_links": {"parentDatastructure": {"href": "/mdr/adam/adam-occds-1-0/datastructures/OCCDS", "title": "Occurrence Data Structure", "type": "Data Structure"}, "parentProduct": {"href": "/mdr/adam/adam-occds-1-0", "title": "ADaM Structure for Occurrence Data (OCCDS) Version 1.0", "type": "Implementation Guide"}, "self": {"href": "/mdr/adam/adam-occds-1-0/datastructures/OCCDS/varsets/MedDRAOccurrenceFlag", "title": "MedDRA Occurrence Flag Variables", "type": "Variable Set"}}, "analysisVariables": [{"_links": {"parentDatastructure": {"href": "/mdr/adam/adam-occds-1-0/datastructures/OCCDS", "title": "Occurrence Data Structure", "type": "Data Structure"}, "parentProduct": {"href": "/mdr/adam/adam-occds-1-0", "title": "ADaM Structure for Occurrence Data (OCCDS) Version 1.0", "type": "Implementation Guide"}, "parentVariableSet": {"href": "/mdr/adam/adam-occds-1-0/datastructures/OCCDS/varsets/MedDRAOccurrenceFlag", "title": "MedDRA Occurrence Flag Variables", "type": "Variable Set"}, "priorVersion": {"href": "/mdr/adam/adam-adae-1-0/datastructures/ADAE/variables/AOCCSFL", "title": "1st Occurrence of SOC Flag", "type": "Analysis Variable"}, "self": {"href": "/mdr/adam/adam-occds-1-0/datastructures/OCCDS/variables/AOCCSFL", "title": "1st Occurrence of SOC Flag", "type": "Analysis Variable"}}, "core": "Perm", "description": "Character indicator for the first occurrence of the system organ class within the subject.\nExample derivation: Sort the data in the required order and flag the first treatment emergent record for each body system for each subject.", "label": "1st Occurrence of SOC Flag", "name": "AOCCSFL", "ordinal": "63", "simpleDatatype": "Char", "valueList": ["Y"]}, {"_links": {"parentDatastructure": {"href": "/mdr/adam/adam-occds-1-0/datastructures/OCCDS", "title": "Occurrence Data Structure", "type": "Data Structure"}, "parentProduct": {"href": "/mdr/adam/adam-occds-1-0", "title": "ADaM Structure for Occurrence Data (OCCDS) Version 1.0", "type": "Implementation Guide"}, "parentVariableSet": {"href": "/mdr/adam/adam-occds-1-0/datastructures/OCCDS/varsets/MedDRAOccurrenceFlag", "title": "MedDRA Occurrence Flag Variables", "type": "Variable Set"}, "priorVersion": {"href": "/mdr/adam/adam-adae-1-0/datastructures/ADAE/variables/AOCCSIFL", "title": "1st Max Sev./Int. Occur Within SOC Flag", "type": "Analysis Variable"}, "self": {"href": "/mdr/adam/adam-occds-1-0/datastructures/OCCDS/variables/AOCCSIFL", "title": "1st Max Sev./Int. Occur Within SOC Flag", "type": "Analysis Variable"}}, "core": "Perm", "description": "Character indicator for the first occurrence of the maximum severity/intensity within the subject and system organ class.\nExample derivation: Sort the data in the required order and flag the first treatment emergent record for maximum severity within body system for each subject.", "label": "1st Max Sev./Int. Occur Within SOC Flag", "name": "AOCCSIFL", "ordinal": "64", "simpleDatatype": "Char", "valueList": ["Y"]}], "label": "MedDRA Occurrence Flag Variables", "name": "MedDRA Occurrence Flag Variables", "ordinal": "12"}, {"_links": {"parentDatastructure": {"href": "/mdr/adam/adam-occds-1-0/datastructures/OCCDS", "title": "Occurrence Data Structure", "type": "Data Structure"}, "parentProduct": {"href": "/mdr/adam/adam-occds-1-0", "title": "ADaM Structure for Occurrence Data (OCCDS) Version 1.0", "type": "Implementation Guide"}, "self": {"href": "/mdr/adam/adam-occds-1-0/datastructures/OCCDS/varsets/TreatmentDose", "title": "Treatment/Dose Variables", "type": "Variable Set"}}, "analysisVariables": [{"_links": {"parentDatastructure": {"href": "/mdr/adam/adam-occds-1-0/datastructures/OCCDS", "title": "Occurrence Data Structure", "type": "Data Structure"}, "parentProduct": {"href": "/mdr/adam/adam-occds-1-0", "title": "ADaM Structure for Occurrence Data (OCCDS) Version 1.0", "type": "Implementation Guide"}, "parentVariableSet": {"href": "/mdr/adam/adam-occds-1-0/datastructures/OCCDS/varsets/TreatmentDose", "title": "Treatment/Dose Variables", "type": "Variable Set"}, "priorVersion": {"href": "/mdr/adam/adam-adae-1-0/datastructures/ADAE/variables/DOSEAEON", "title": "Study Drug Dose at AE Onset", "type": "Analysis Variable"}, "self": {"href": "/mdr/adam/adam-occds-1-0/datastructures/OCCDS/variables/DOSEON", "title": "Treatment Dose at\nRecord Start", "type": "Analysis Variable"}}, "core": "Perm", "description": "Dose received at the point in time of the record start date.\nExample derivation:\nObtained from EX.EXDOSE where --STDTC falls between the values of EX.EXSTDTC and\nEX.EXENDTC", "label": "Treatment Dose at\nRecord Start", "name": "DOSEON", "ordinal": "65", "simpleDatatype": "Num"}, {"_links": {"parentDatastructure": {"href": "/mdr/adam/adam-occds-1-0/datastructures/OCCDS", "title": "Occurrence Data Structure", "type": "Data Structure"}, "parentProduct": {"href": "/mdr/adam/adam-occds-1-0", "title": "ADaM Structure for Occurrence Data (OCCDS) Version 1.0", "type": "Implementation Guide"}, "parentVariableSet": {"href": "/mdr/adam/adam-occds-1-0/datastructures/OCCDS/varsets/TreatmentDose", "title": "Treatment/Dose Variables", "type": "Variable Set"}, "priorVersion": {"href": "/mdr/adam/adam-adae-1-0/datastructures/ADAE/variables/DOSECUM", "title": "Cumulative Study Drug Dose", "type": "Analysis Variable"}, "self": {"href": "/mdr/adam/adam-occds-1-0/datastructures/OCCDS/variables/DOSCUMA", "title": "Cumulative Actual\nTreatment Dose", "type": "Analysis Variable"}}, "core": "Perm", "description": "Cumulative actual study drug dosage at the point in time of the record start date.", "label": "Cumulative Actual\nTreatment Dose", "name": "DOSCUMA", "ordinal": "66", "simpleDatatype": "Num"}, {"_links": {"codelist": [{"href": "/mdr/root/ct/sdtmct/codelists/C71620", "title": "Version-agnostic anchor resource for codelist C71620", "type": "Root Value Domain"}], "parentDatastructure": {"href": "/mdr/adam/adam-occds-1-0/datastructures/OCCDS", "title": "Occurrence Data Structure", "type": "Data Structure"}, "parentProduct": {"href": "/mdr/adam/adam-occds-1-0", "title": "ADaM Structure for Occurrence Data (OCCDS) Version 1.0", "type": "Implementation Guide"}, "parentVariableSet": {"href": "/mdr/adam/adam-occds-1-0/datastructures/OCCDS/varsets/TreatmentDose", "title": "Treatment/Dose Variables", "type": "Variable Set"}, "self": {"href": "/mdr/adam/adam-occds-1-0/datastructures/OCCDS/variables/DOSEU", "title": "Treatment Dose Units", "type": "Analysis Variable"}}, "codelistSubmissionValues": ["UNIT"], "core": "Cond", "description": "Conditional on whether DOSEON and/or DOSCUMA are included.", "label": "Treatment Dose Units", "name": "DOSEU", "ordinal": "67", "simpleDatatype": "Char"}], "label": "Treatment/Dose Variables", "name": "Treatment/Dose Variables", "ordinal": "13"}, {"_links": {"parentDatastructure": {"href": "/mdr/adam/adam-occds-1-0/datastructures/OCCDS", "title": "Occurrence Data Structure", "type": "Data Structure"}, "parentProduct": {"href": "/mdr/adam/adam-occds-1-0", "title": "ADaM Structure for Occurrence Data (OCCDS) Version 1.0", "type": "Implementation Guide"}, "self": {"href": "/mdr/adam/adam-occds-1-0/datastructures/OCCDS/varsets/AdverseEventDescriptive", "title": "Adverse Event Descriptive Variables", "type": "Variable Set"}}, "analysisVariables": [{"_links": {"parentDatastructure": {"href": "/mdr/adam/adam-occds-1-0/datastructures/OCCDS", "title": "Occurrence Data Structure", "type": "Data Structure"}, "parentProduct": {"href": "/mdr/adam/adam-occds-1-0", "title": "ADaM Structure for Occurrence Data (OCCDS) Version 1.0", "type": "Implementation Guide"}, "parentVariableSet": {"href": "/mdr/adam/adam-occds-1-0/datastructures/OCCDS/varsets/AdverseEventDescriptive", "title": "Adverse Event Descriptive Variables", "type": "Variable Set"}, "priorVersion": {"href": "/mdr/adam/adam-adae-1-0/datastructures/ADAE/variables/AESER", "title": "Serious Event", "type": "Analysis Variable"}, "self": {"href": "/mdr/adam/adam-occds-1-0/datastructures/OCCDS/variables/AESER", "title": "Serious Event", "type": "Analysis Variable"}}, "core": "Req", "description": "AE.AESER", "label": "Serious Event", "name": "AESER", "ordinal": "68", "simpleDatatype": "Char", "valueList": ["N", "Y"]}, {"_links": {"codelist": [{"href": "/mdr/root/ct/sdtmct/codelists/C66769", "title": "Version-agnostic anchor resource for codelist C66769", "type": "Root Value Domain"}], "parentDatastructure": {"href": "/mdr/adam/adam-occds-1-0/datastructures/OCCDS", "title": "Occurrence Data Structure", "type": "Data Structure"}, "parentProduct": {"href": "/mdr/adam/adam-occds-1-0", "title": "ADaM Structure for Occurrence Data (OCCDS) Version 1.0", "type": "Implementation Guide"}, "parentVariableSet": {"href": "/mdr/adam/adam-occds-1-0/datastructures/OCCDS/varsets/AdverseEventDescriptive", "title": "Adverse Event Descriptive Variables", "type": "Variable Set"}, "priorVersion": {"href": "/mdr/adam/adam-adae-1-0/datastructures/ADAE/variables/AESEV", "title": "Severity/Intensity", "type": "Analysis Variable"}, "self": {"href": "/mdr/adam/adam-occds-1-0/datastructures/OCCDS/variables/AESEV", "title": "Severity/Intensity", "type": "Analysis Variable"}}, "codelistSubmissionValues": ["AESEV"], "core": "Perm", "description": "AE.AESEV", "label": "Severity/Intensity", "name": "AESEV", "ordinal": "69", "simpleDatatype": "Char"}, {"_links": {"parentDatastructure": {"href": "/mdr/adam/adam-occds-1-0/datastructures/OCCDS", "title": "Occurrence Data Structure", "type": "Data Structure"}, "parentProduct": {"href": "/mdr/adam/adam-occds-1-0", "title": "ADaM Structure for Occurrence Data (OCCDS) Version 1.0", "type": "Implementation Guide"}, "parentVariableSet": {"href": "/mdr/adam/adam-occds-1-0/datastructures/OCCDS/varsets/AdverseEventDescriptive", "title": "Adverse Event Descriptive Variables", "type": "Variable Set"}, "priorVersion": {"href": "/mdr/adam/adam-adae-1-0/datastructures/ADAE/variables/AESEVN", "title": "Severity/Intensity (N)", "type": "Analysis Variable"}, "self": {"href": "/mdr/adam/adam-occds-1-0/datastructures/OCCDS/variables/AESEVN", "title": "Severity/Intensity (N)", "type": "Analysis Variable"}}, "core": "Perm", "description": "Code AE.AESEV to numeric\nLow intensity should correspond to low value", "label": "Severity/Intensity (N)", "name": "AESEVN", "ordinal": "70", "simpleDatatype": "Num", "valueList": ["1", "2", "3"]}, {"_links": {"parentDatastructure": {"href": "/mdr/adam/adam-occds-1-0/datastructures/OCCDS", "title": "Occurrence Data Structure", "type": "Data Structure"}, "parentProduct": {"href": "/mdr/adam/adam-occds-1-0", "title": "ADaM Structure for Occurrence Data (OCCDS) Version 1.0", "type": "Implementation Guide"}, "parentVariableSet": {"href": "/mdr/adam/adam-occds-1-0/datastructures/OCCDS/varsets/AdverseEventDescriptive", "title": "Adverse Event Descriptive Variables", "type": "Variable Set"}, "priorVersion": {"href": "/mdr/adam/adam-adae-1-0/datastructures/ADAE/variables/ASEV", "title": "Analysis Severity/Intensity", "type": "Analysis Variable"}, "self": {"href": "/mdr/adam/adam-occds-1-0/datastructures/OCCDS/variables/ASEV", "title": "Analysis Severity/Intensity", "type": "Analysis Variable"}}, "core": "Perm", "description": "Apply imputation rules for missing severity of adverse events as specified in the SAP or metadata. May change case of text, such as from all uppercase in AESEV to mixed case in ASEV.", "label": "Analysis Severity/Intensity", "name": "ASEV", "ordinal": "71", "simpleDatatype": "Char"}, {"_links": {"parentDatastructure": {"href": "/mdr/adam/adam-occds-1-0/datastructures/OCCDS", "title": "Occurrence Data Structure", "type": "Data Structure"}, "parentProduct": {"href": "/mdr/adam/adam-occds-1-0", "title": "ADaM Structure for Occurrence Data (OCCDS) Version 1.0", "type": "Implementation Guide"}, "parentVariableSet": {"href": "/mdr/adam/adam-occds-1-0/datastructures/OCCDS/varsets/AdverseEventDescriptive", "title": "Adverse Event Descriptive Variables", "type": "Variable Set"}, "priorVersion": {"href": "/mdr/adam/adam-adae-1-0/datastructures/ADAE/variables/ASEVN", "title": "Analysis Severity/Intensity (N)", "type": "Analysis Variable"}, "self": {"href": "/mdr/adam/adam-occds-1-0/datastructures/OCCDS/variables/ASEVN", "title": "Analysis Severity/Intensity (N)", "type": "Analysis Variable"}}, "core": "Perm", "description": "Code ASEV to numeric\nLow intensity should correspond to low value", "label": "Analysis Severity/Intensity (N)", "name": "ASEVN", "ordinal": "72", "simpleDatatype": "Num", "valueList": ["1", "2", "3"]}, {"_links": {"parentDatastructure": {"href": "/mdr/adam/adam-occds-1-0/datastructures/OCCDS", "title": "Occurrence Data Structure", "type": "Data Structure"}, "parentProduct": {"href": "/mdr/adam/adam-occds-1-0", "title": "ADaM Structure for Occurrence Data (OCCDS) Version 1.0", "type": "Implementation Guide"}, "parentVariableSet": {"href": "/mdr/adam/adam-occds-1-0/datastructures/OCCDS/varsets/AdverseEventDescriptive", "title": "Adverse Event Descriptive Variables", "type": "Variable Set"}, "priorVersion": {"href": "/mdr/adam/adam-adae-1-0/datastructures/ADAE/variables/SEVGRy", "title": "Pooled Severity Group y", "type": "Analysis Variable"}, "self": {"href": "/mdr/adam/adam-occds-1-0/datastructures/OCCDS/variables/SEVGRy", "title": "Pooled Severity Group y", "type": "Analysis Variable"}}, "core": "Perm", "description": "Pooled grouping of AE Severity for analysis (e.g. mild/moderate or severe).", "label": "Pooled Severity Group y", "name": "SEVGRy", "ordinal": "73", "simpleDatatype": "Char"}, {"_links": {"parentDatastructure": {"href": "/mdr/adam/adam-occds-1-0/datastructures/OCCDS", "title": "Occurrence Data Structure", "type": "Data Structure"}, "parentProduct": {"href": "/mdr/adam/adam-occds-1-0", "title": "ADaM Structure for Occurrence Data (OCCDS) Version 1.0", "type": "Implementation Guide"}, "parentVariableSet": {"href": "/mdr/adam/adam-occds-1-0/datastructures/OCCDS/varsets/AdverseEventDescriptive", "title": "Adverse Event Descriptive Variables", "type": "Variable Set"}, "priorVersion": {"href": "/mdr/adam/adam-adae-1-0/datastructures/ADAE/variables/SEVGRyN", "title": "Pooled Severity Group y (N)", "type": "Analysis Variable"}, "self": {"href": "/mdr/adam/adam-occds-1-0/datastructures/OCCDS/variables/SEVGRyN", "title": "Pooled Severity Group y (N)", "type": "Analysis Variable"}}, "core": "Perm", "description": "Code SEVGRy to numeric\nLow intensity should correspond to low value", "label": "Pooled Severity Group y (N)", "name": "SEVGRyN", "ordinal": "74", "simpleDatatype": "Num"}, {"_links": {"parentDatastructure": {"href": "/mdr/adam/adam-occds-1-0/datastructures/OCCDS", "title": "Occurrence Data Structure", "type": "Data Structure"}, "parentProduct": {"href": "/mdr/adam/adam-occds-1-0", "title": "ADaM Structure for Occurrence Data (OCCDS) Version 1.0", "type": "Implementation Guide"}, "parentVariableSet": {"href": "/mdr/adam/adam-occds-1-0/datastructures/OCCDS/varsets/AdverseEventDescriptive", "title": "Adverse Event Descriptive Variables", "type": "Variable Set"}, "priorVersion": {"href": "/mdr/adam/adam-adae-1-0/datastructures/ADAE/variables/AEREL", "title": "Causality", "type": "Analysis Variable"}, "self": {"href": "/mdr/adam/adam-occds-1-0/datastructures/OCCDS/variables/AEREL", "title": "Causality", "type": "Analysis Variable"}}, "core": "Perm", "description": "AE.AEREL", "label": "Causality", "name": "AEREL", "ordinal": "75", "simpleDatatype": "Char"}, {"_links": {"parentDatastructure": {"href": "/mdr/adam/adam-occds-1-0/datastructures/OCCDS", "title": "Occurrence Data Structure", "type": "Data Structure"}, "parentProduct": {"href": "/mdr/adam/adam-occds-1-0", "title": "ADaM Structure for Occurrence Data (OCCDS) Version 1.0", "type": "Implementation Guide"}, "parentVariableSet": {"href": "/mdr/adam/adam-occds-1-0/datastructures/OCCDS/varsets/AdverseEventDescriptive", "title": "Adverse Event Descriptive Variables", "type": "Variable Set"}, "priorVersion": {"href": "/mdr/adam/adam-adae-1-0/datastructures/ADAE/variables/AERELN", "title": "Causality (N)", "type": "Analysis Variable"}, "self": {"href": "/mdr/adam/adam-occds-1-0/datastructures/OCCDS/variables/AERELN", "title": "Causality (N)", "type": "Analysis Variable"}}, "core": "Perm", "description": "Code AE.AEREL to numeric\nLow relation should correspond to low value", "label": "Causality (N)", "name": "AERELN", "ordinal": "76", "simpleDatatype": "Num"}, {"_links": {"parentDatastructure": {"href": "/mdr/adam/adam-occds-1-0/datastructures/OCCDS", "title": "Occurrence Data Structure", "type": "Data Structure"}, "parentProduct": {"href": "/mdr/adam/adam-occds-1-0", "title": "ADaM Structure for Occurrence Data (OCCDS) Version 1.0", "type": "Implementation Guide"}, "parentVariableSet": {"href": "/mdr/adam/adam-occds-1-0/datastructures/OCCDS/varsets/AdverseEventDescriptive", "title": "Adverse Event Descriptive Variables", "type": "Variable Set"}, "priorVersion": {"href": "/mdr/adam/adam-adae-1-0/datastructures/ADAE/variables/AREL", "title": "Analysis Causality", "type": "Analysis Variable"}, "self": {"href": "/mdr/adam/adam-occds-1-0/datastructures/OCCDS/variables/AREL", "title": "Analysis Causality", "type": "Analysis Variable"}}, "core": "Perm", "description": "Apply imputation rules for missing causality of study drug as specified in the SAP or metadata. May change case of text, such as from all uppercase in AEREL to mixed case in AREL.", "label": "Analysis Causality", "name": "AREL", "ordinal": "77", "simpleDatatype": "Char"}, {"_links": {"parentDatastructure": {"href": "/mdr/adam/adam-occds-1-0/datastructures/OCCDS", "title": "Occurrence Data Structure", "type": "Data Structure"}, "parentProduct": {"href": "/mdr/adam/adam-occds-1-0", "title": "ADaM Structure for Occurrence Data (OCCDS) Version 1.0", "type": "Implementation Guide"}, "parentVariableSet": {"href": "/mdr/adam/adam-occds-1-0/datastructures/OCCDS/varsets/AdverseEventDescriptive", "title": "Adverse Event Descriptive Variables", "type": "Variable Set"}, "priorVersion": {"href": "/mdr/adam/adam-adae-1-0/datastructures/ADAE/variables/ARELN", "title": "Analysis Causality (N)", "type": "Analysis Variable"}, "self": {"href": "/mdr/adam/adam-occds-1-0/datastructures/OCCDS/variables/ARELN", "title": "Analysis Causality (N)", "type": "Analysis Variable"}}, "core": "Perm", "description": "Code AREL to numeric", "label": "Analysis Causality (N)", "name": "ARELN", "ordinal": "78", "simpleDatatype": "Num"}, {"_links": {"parentDatastructure": {"href": "/mdr/adam/adam-occds-1-0/datastructures/OCCDS", "title": "Occurrence Data Structure", "type": "Data Structure"}, "parentProduct": {"href": "/mdr/adam/adam-occds-1-0", "title": "ADaM Structure for Occurrence Data (OCCDS) Version 1.0", "type": "Implementation Guide"}, "parentVariableSet": {"href": "/mdr/adam/adam-occds-1-0/datastructures/OCCDS/varsets/AdverseEventDescriptive", "title": "Adverse Event Descriptive Variables", "type": "Variable Set"}, "priorVersion": {"href": "/mdr/adam/adam-adae-1-0/datastructures/ADAE/variables/RELGRy", "title": "Pooled Causality Group y", "type": "Analysis Variable"}, "self": {"href": "/mdr/adam/adam-occds-1-0/datastructures/OCCDS/variables/RELGRy", "title": "Pooled Causality Group y", "type": "Analysis Variable"}}, "core": "Perm", "description": "Pooled grouping of causality of study drug for analysis (e.g. related, Not related).", "label": "Pooled Causality Group y", "name": "RELGRy", "ordinal": "79", "simpleDatatype": "Char"}, {"_links": {"parentDatastructure": {"href": "/mdr/adam/adam-occds-1-0/datastructures/OCCDS", "title": "Occurrence Data Structure", "type": "Data Structure"}, "parentProduct": {"href": "/mdr/adam/adam-occds-1-0", "title": "ADaM Structure for Occurrence Data (OCCDS) Version 1.0", "type": "Implementation Guide"}, "parentVariableSet": {"href": "/mdr/adam/adam-occds-1-0/datastructures/OCCDS/varsets/AdverseEventDescriptive", "title": "Adverse Event Descriptive Variables", "type": "Variable Set"}, "priorVersion": {"href": "/mdr/adam/adam-adae-1-0/datastructures/ADAE/variables/RELGRyN", "title": "Pooled Causality Group y (N)", "type": "Analysis Variable"}, "self": {"href": "/mdr/adam/adam-occds-1-0/datastructures/OCCDS/variables/RELGRyN", "title": "Pooled Causality Group y (N)", "type": "Analysis Variable"}}, "core": "Perm", "description": "Code of RELGRy to numeric\nLow relation should correspond to low value", "label": "Pooled Causality Group y (N)", "name": "RELGRyN", "ordinal": "80", "simpleDatatype": "Num"}, {"_links": {"parentDatastructure": {"href": "/mdr/adam/adam-occds-1-0/datastructures/OCCDS", "title": "Occurrence Data Structure", "type": "Data Structure"}, "parentProduct": {"href": "/mdr/adam/adam-occds-1-0", "title": "ADaM Structure for Occurrence Data (OCCDS) Version 1.0", "type": "Implementation Guide"}, "parentVariableSet": {"href": "/mdr/adam/adam-occds-1-0/datastructures/OCCDS/varsets/AdverseEventDescriptive", "title": "Adverse Event Descriptive Variables", "type": "Variable Set"}, "priorVersion": {"href": "/mdr/adam/adam-adae-1-0/datastructures/ADAE/variables/AETOXGR", "title": "Standard Toxicity Grade", "type": "Analysis Variable"}, "self": {"href": "/mdr/adam/adam-occds-1-0/datastructures/OCCDS/variables/AETOXGR", "title": "Standard Toxicity Grade", "type": "Analysis Variable"}}, "core": "Perm", "description": "AE.AETOXGR", "label": "Standard Toxicity Grade", "name": "AETOXGR", "ordinal": "81", "simpleDatatype": "Char"}, {"_links": {"parentDatastructure": {"href": "/mdr/adam/adam-occds-1-0/datastructures/OCCDS", "title": "Occurrence Data Structure", "type": "Data Structure"}, "parentProduct": {"href": "/mdr/adam/adam-occds-1-0", "title": "ADaM Structure for Occurrence Data (OCCDS) Version 1.0", "type": "Implementation Guide"}, "parentVariableSet": {"href": "/mdr/adam/adam-occds-1-0/datastructures/OCCDS/varsets/AdverseEventDescriptive", "title": "Adverse Event Descriptive Variables", "type": "Variable Set"}, "priorVersion": {"href": "/mdr/adam/adam-adae-1-0/datastructures/ADAE/variables/AETOXGRN", "title": "Standard Toxicity Grade (N)", "type": "Analysis Variable"}, "self": {"href": "/mdr/adam/adam-occds-1-0/datastructures/OCCDS/variables/AETOXGRN", "title": "Standard Toxicity Grade (N)", "type": "Analysis Variable"}}, "core": "Perm", "description": "Code AETOXGR to numeric\nLow toxicity should correspond to low value", "label": "Standard Toxicity Grade (N)", "name": "AETOXGRN", "ordinal": "82", "simpleDatatype": "Num"}, {"_links": {"parentDatastructure": {"href": "/mdr/adam/adam-occds-1-0/datastructures/OCCDS", "title": "Occurrence Data Structure", "type": "Data Structure"}, "parentProduct": {"href": "/mdr/adam/adam-occds-1-0", "title": "ADaM Structure for Occurrence Data (OCCDS) Version 1.0", "type": "Implementation Guide"}, "parentVariableSet": {"href": "/mdr/adam/adam-occds-1-0/datastructures/OCCDS/varsets/AdverseEventDescriptive", "title": "Adverse Event Descriptive Variables", "type": "Variable Set"}, "priorVersion": {"href": "/mdr/adam/adam-adae-1-0/datastructures/ADAE/variables/ATOXGR", "title": "Analysis Toxicity Grade", "type": "Analysis Variable"}, "self": {"href": "/mdr/adam/adam-occds-1-0/datastructures/OCCDS/variables/ATOXGR", "title": "Analysis Toxicity Grade", "type": "Analysis Variable"}}, "core": "Perm", "description": "Toxicity grade for analysis. May be based on AETOXGR or an imputed or assigned value. May change case of text, such as from all uppercase in AETOXGR to mixed case in ATOXGR.", "label": "Analysis Toxicity Grade", "name": "ATOXGR", "ordinal": "83", "simpleDatatype": "Char"}, {"_links": {"parentDatastructure": {"href": "/mdr/adam/adam-occds-1-0/datastructures/OCCDS", "title": "Occurrence Data Structure", "type": "Data Structure"}, "parentProduct": {"href": "/mdr/adam/adam-occds-1-0", "title": "ADaM Structure for Occurrence Data (OCCDS) Version 1.0", "type": "Implementation Guide"}, "parentVariableSet": {"href": "/mdr/adam/adam-occds-1-0/datastructures/OCCDS/varsets/AdverseEventDescriptive", "title": "Adverse Event Descriptive Variables", "type": "Variable Set"}, "priorVersion": {"href": "/mdr/adam/adam-adae-1-0/datastructures/ADAE/variables/ATOXGRN", "title": "Analysis Toxicity Grade (N)", "type": "Analysis Variable"}, "self": {"href": "/mdr/adam/adam-occds-1-0/datastructures/OCCDS/variables/ATOXGRN", "title": "Analysis Toxicity Grade (N)", "type": "Analysis Variable"}}, "core": "Perm", "description": "Code ATOXGR to numeric\nLow toxicity should correspond to low value", "label": "Analysis Toxicity Grade (N)", "name": "ATOXGRN", "ordinal": "84", "simpleDatatype": "Num"}, {"_links": {"parentDatastructure": {"href": "/mdr/adam/adam-occds-1-0/datastructures/OCCDS", "title": "Occurrence Data Structure", "type": "Data Structure"}, "parentProduct": {"href": "/mdr/adam/adam-occds-1-0", "title": "ADaM Structure for Occurrence Data (OCCDS) Version 1.0", "type": "Implementation Guide"}, "parentVariableSet": {"href": "/mdr/adam/adam-occds-1-0/datastructures/OCCDS/varsets/AdverseEventDescriptive", "title": "Adverse Event Descriptive Variables", "type": "Variable Set"}, "priorVersion": {"href": "/mdr/adam/adam-adae-1-0/datastructures/ADAE/variables/TOXGGRy", "title": "Pooled Toxicity Grade Group y", "type": "Analysis Variable"}, "self": {"href": "/mdr/adam/adam-occds-1-0/datastructures/OCCDS/variables/TOXGGRy", "title": "Pooled Toxicity Grade Group y", "type": "Analysis Variable"}}, "core": "Perm", "description": "Pooled grouping of toxicity grade for analysis.", "label": "Pooled Toxicity Grade Group y", "name": "TOXGGRy", "ordinal": "85", "simpleDatatype": "Char"}, {"_links": {"parentDatastructure": {"href": "/mdr/adam/adam-occds-1-0/datastructures/OCCDS", "title": "Occurrence Data Structure", "type": "Data Structure"}, "parentProduct": {"href": "/mdr/adam/adam-occds-1-0", "title": "ADaM Structure for Occurrence Data (OCCDS) Version 1.0", "type": "Implementation Guide"}, "parentVariableSet": {"href": "/mdr/adam/adam-occds-1-0/datastructures/OCCDS/varsets/AdverseEventDescriptive", "title": "Adverse Event Descriptive Variables", "type": "Variable Set"}, "priorVersion": {"href": "/mdr/adam/adam-adae-1-0/datastructures/ADAE/variables/TOXGGRyN", "title": "Pooled Toxicity Grade y (N)", "type": "Analysis Variable"}, "self": {"href": "/mdr/adam/adam-occds-1-0/datastructures/OCCDS/variables/TOXGGRyN", "title": "Pooled Toxicity Grade y (N)", "type": "Analysis Variable"}}, "core": "Perm", "description": "Code of TOXGGRy to numeric\nLow toxicity should correspond to low value", "label": "Pooled Toxicity Grade y (N)", "name": "TOXGGRyN", "ordinal": "86", "simpleDatatype": "Num"}, {"_links": {"codelist": [{"href": "/mdr/root/ct/sdtmct/codelists/C66767", "title": "Version-agnostic anchor resource for codelist C66767", "type": "Root Value Domain"}], "parentDatastructure": {"href": "/mdr/adam/adam-occds-1-0/datastructures/OCCDS", "title": "Occurrence Data Structure", "type": "Data Structure"}, "parentProduct": {"href": "/mdr/adam/adam-occds-1-0", "title": "ADaM Structure for Occurrence Data (OCCDS) Version 1.0", "type": "Implementation Guide"}, "parentVariableSet": {"href": "/mdr/adam/adam-occds-1-0/datastructures/OCCDS/varsets/AdverseEventDescriptive", "title": "Adverse Event Descriptive Variables", "type": "Variable Set"}, "priorVersion": {"href": "/mdr/adam/adam-adae-1-0/datastructures/ADAE/variables/AEACN", "title": "Action Taken with Study Treatment", "type": "Analysis Variable"}, "self": {"href": "/mdr/adam/adam-occds-1-0/datastructures/OCCDS/variables/AEACN", "title": "Action Taken with Study Treatment", "type": "Analysis Variable"}}, "codelistSubmissionValues": ["ACN"], "core": "Perm", "description": "AE.AEACN", "label": "Action Taken with Study Treatment", "name": "AEACN", "ordinal": "87", "simpleDatatype": "Char"}], "label": "Adverse Event Descriptive Variables", "name": "Adverse Event Descriptive Variables", "ordinal": "14"}, {"_links": {"parentDatastructure": {"href": "/mdr/adam/adam-occds-1-0/datastructures/OCCDS", "title": "Occurrence Data Structure", "type": "Data Structure"}, "parentProduct": {"href": "/mdr/adam/adam-occds-1-0", "title": "ADaM Structure for Occurrence Data (OCCDS) Version 1.0", "type": "Implementation Guide"}, "self": {"href": "/mdr/adam/adam-occds-1-0/datastructures/OCCDS/varsets/ConcomitantMedicationsDescriptive", "title": "Concomitant Medications Descriptive Variables", "type": "Variable Set"}}, "analysisVariables": [{"_links": {"parentDatastructure": {"href": "/mdr/adam/adam-occds-1-0/datastructures/OCCDS", "title": "Occurrence Data Structure", "type": "Data Structure"}, "parentProduct": {"href": "/mdr/adam/adam-occds-1-0", "title": "ADaM Structure for Occurrence Data (OCCDS) Version 1.0", "type": "Implementation Guide"}, "parentVariableSet": {"href": "/mdr/adam/adam-occds-1-0/datastructures/OCCDS/varsets/ConcomitantMedicationsDescriptive", "title": "Concomitant Medications Descriptive Variables", "type": "Variable Set"}, "self": {"href": "/mdr/adam/adam-occds-1-0/datastructures/OCCDS/variables/CMSTAT", "title": "Completion Status", "type": "Analysis Variable"}}, "core": "Perm", "description": "CM.CMSTAT", "label": "Completion Status", "name": "CMSTAT", "ordinal": "88", "simpleDatatype": "Char"}, {"_links": {"parentDatastructure": {"href": "/mdr/adam/adam-occds-1-0/datastructures/OCCDS", "title": "Occurrence Data Structure", "type": "Data Structure"}, "parentProduct": {"href": "/mdr/adam/adam-occds-1-0", "title": "ADaM Structure for Occurrence Data (OCCDS) Version 1.0", "type": "Implementation Guide"}, "parentVariableSet": {"href": "/mdr/adam/adam-occds-1-0/datastructures/OCCDS/varsets/ConcomitantMedicationsDescriptive", "title": "Concomitant Medications Descriptive Variables", "type": "Variable Set"}, "self": {"href": "/mdr/adam/adam-occds-1-0/datastructures/OCCDS/variables/CMINDC", "title": "Indication", "type": "Analysis Variable"}}, "core": "Perm", "description": "CM.CMINDC", "label": "Indication", "name": "CMINDC", "ordinal": "89", "simpleDatatype": "Char"}, {"_links": {"parentDatastructure": {"href": "/mdr/adam/adam-occds-1-0/datastructures/OCCDS", "title": "Occurrence Data Structure", "type": "Data Structure"}, "parentProduct": {"href": "/mdr/adam/adam-occds-1-0", "title": "ADaM Structure for Occurrence Data (OCCDS) Version 1.0", "type": "Implementation Guide"}, "parentVariableSet": {"href": "/mdr/adam/adam-occds-1-0/datastructures/OCCDS/varsets/ConcomitantMedicationsDescriptive", "title": "Concomitant Medications Descriptive Variables", "type": "Variable Set"}, "self": {"href": "/mdr/adam/adam-occds-1-0/datastructures/OCCDS/variables/CMDOSE", "title": "Dose per Administration", "type": "Analysis Variable"}}, "core": "Perm", "description": "CM.CMDOSE", "label": "Dose per Administration", "name": "CMDOSE", "ordinal": "90", "simpleDatatype": "Num"}, {"_links": {"parentDatastructure": {"href": "/mdr/adam/adam-occds-1-0/datastructures/OCCDS", "title": "Occurrence Data Structure", "type": "Data Structure"}, "parentProduct": {"href": "/mdr/adam/adam-occds-1-0", "title": "ADaM Structure for Occurrence Data (OCCDS) Version 1.0", "type": "Implementation Guide"}, "parentVariableSet": {"href": "/mdr/adam/adam-occds-1-0/datastructures/OCCDS/varsets/ConcomitantMedicationsDescriptive", "title": "Concomitant Medications Descriptive Variables", "type": "Variable Set"}, "self": {"href": "/mdr/adam/adam-occds-1-0/datastructures/OCCDS/variables/CMDOSFRM", "title": "Dose Form", "type": "Analysis Variable"}}, "core": "Perm", "description": "CM.CMDOSFRM", "label": "Dose Form", "name": "CMDOSFRM", "ordinal": "91", "simpleDatatype": "Char"}, {"_links": {"parentDatastructure": {"href": "/mdr/adam/adam-occds-1-0/datastructures/OCCDS", "title": "Occurrence Data Structure", "type": "Data Structure"}, "parentProduct": {"href": "/mdr/adam/adam-occds-1-0", "title": "ADaM Structure for Occurrence Data (OCCDS) Version 1.0", "type": "Implementation Guide"}, "parentVariableSet": {"href": "/mdr/adam/adam-occds-1-0/datastructures/OCCDS/varsets/ConcomitantMedicationsDescriptive", "title": "Concomitant Medications Descriptive Variables", "type": "Variable Set"}, "self": {"href": "/mdr/adam/adam-occds-1-0/datastructures/OCCDS/variables/CMDOSRGM", "title": "Intended Dose Regimen", "type": "Analysis Variable"}}, "core": "Perm", "description": "CM.CMDOSRGM", "label": "Intended Dose Regimen", "name": "CMDOSRGM", "ordinal": "92", "simpleDatatype": "Char"}, {"_links": {"parentDatastructure": {"href": "/mdr/adam/adam-occds-1-0/datastructures/OCCDS", "title": "Occurrence Data Structure", "type": "Data Structure"}, "parentProduct": {"href": "/mdr/adam/adam-occds-1-0", "title": "ADaM Structure for Occurrence Data (OCCDS) Version 1.0", "type": "Implementation Guide"}, "parentVariableSet": {"href": "/mdr/adam/adam-occds-1-0/datastructures/OCCDS/varsets/ConcomitantMedicationsDescriptive", "title": "Concomitant Medications Descriptive Variables", "type": "Variable Set"}, "self": {"href": "/mdr/adam/adam-occds-1-0/datastructures/OCCDS/variables/CMROUTE", "title": "Route of Administration", "type": "Analysis Variable"}}, "core": "Perm", "description": "CM.CMROUTE", "label": "Route of Administration", "name": "CMROUTE", "ordinal": "93", "simpleDatatype": "Char"}], "label": "Concomitant Medications Descriptive Variables", "name": "Concomitant Medications Descriptive Variables", "ordinal": "15"}, {"_links": {"parentDatastructure": {"href": "/mdr/adam/adam-occds-1-0/datastructures/OCCDS", "title": "Occurrence Data Structure", "type": "Data Structure"}, "parentProduct": {"href": "/mdr/adam/adam-occds-1-0", "title": "ADaM Structure for Occurrence Data (OCCDS) Version 1.0", "type": "Implementation Guide"}, "self": {"href": "/mdr/adam/adam-occds-1-0/datastructures/OCCDS/varsets/StandardizedMedDRAQuery", "title": "Standardized MedDRA Query Variables", "type": "Variable Set"}}, "analysisVariables": [{"_links": {"parentDatastructure": {"href": "/mdr/adam/adam-occds-1-0/datastructures/OCCDS", "title": "Occurrence Data Structure", "type": "Data Structure"}, "parentProduct": {"href": "/mdr/adam/adam-occds-1-0", "title": "ADaM Structure for Occurrence Data (OCCDS) Version 1.0", "type": "Implementation Guide"}, "parentVariableSet": {"href": "/mdr/adam/adam-occds-1-0/datastructures/OCCDS/varsets/StandardizedMedDRAQuery", "title": "Standardized MedDRA Query Variables", "type": "Variable Set"}, "priorVersion": {"href": "/mdr/adam/adam-adae-1-0/datastructures/ADAE/variables/SMQzzNAM", "title": "SMQ zz Name", "type": "Analysis Variable"}, "self": {"href": "/mdr/adam/adam-occds-1-0/datastructures/OCCDS/variables/SMQzzNAM", "title": "SMQ zz Name", "type": "Analysis Variable"}}, "core": "Cond", "description": "The standardized MedDRA queries name. Would be blank for terms that are not in the SMQ. Therefore this variable could be blank for all records if no terms within the study were included in the SMQ.\nConditional on whether SMQ analysis is done.", "label": "SMQ zz Name", "name": "SMQzzNAM", "ordinal": "94", "simpleDatatype": "Char"}, {"_links": {"parentDatastructure": {"href": "/mdr/adam/adam-occds-1-0/datastructures/OCCDS", "title": "Occurrence Data Structure", "type": "Data Structure"}, "parentProduct": {"href": "/mdr/adam/adam-occds-1-0", "title": "ADaM Structure for Occurrence Data (OCCDS) Version 1.0", "type": "Implementation Guide"}, "parentVariableSet": {"href": "/mdr/adam/adam-occds-1-0/datastructures/OCCDS/varsets/StandardizedMedDRAQuery", "title": "Standardized MedDRA Query Variables", "type": "Variable Set"}, "priorVersion": {"href": "/mdr/adam/adam-adae-1-0/datastructures/ADAE/variables/SMQzzCD", "title": "SMQ zz Code", "type": "Analysis Variable"}, "self": {"href": "/mdr/adam/adam-occds-1-0/datastructures/OCCDS/variables/SMQzzCD", "title": "SMQ zz Code", "type": "Analysis Variable"}}, "core": "Perm", "description": "The standardized MedDRA queries number code.", "label": "SMQ zz Code", "name": "SMQzzCD", "ordinal": "95", "simpleDatatype": "Num"}, {"_links": {"parentDatastructure": {"href": "/mdr/adam/adam-occds-1-0/datastructures/OCCDS", "title": "Occurrence Data Structure", "type": "Data Structure"}, "parentProduct": {"href": "/mdr/adam/adam-occds-1-0", "title": "ADaM Structure for Occurrence Data (OCCDS) Version 1.0", "type": "Implementation Guide"}, "parentVariableSet": {"href": "/mdr/adam/adam-occds-1-0/datastructures/OCCDS/varsets/StandardizedMedDRAQuery", "title": "Standardized MedDRA Query Variables", "type": "Variable Set"}, "priorVersion": {"href": "/mdr/adam/adam-adae-1-0/datastructures/ADAE/variables/SMQzzSC", "title": "SMQ zz Scope", "type": "Analysis Variable"}, "self": {"href": "/mdr/adam/adam-occds-1-0/datastructures/OCCDS/variables/SMQzzSC", "title": "SMQ zz Scope", "type": "Analysis Variable"}}, "core": "Cond", "description": "The search strategy for SMQs can be narrow or broad. The preferred terms that are narrow in scope have high specificity for identifying events of interest while the broad terms have high sensitivity. By definition, all narrow terms are also considered within the broad scope. Therefore, to summarize all broad terms, terms with either narrow OR broad would be considered.Will be null for terms that do not meet the criteria.\nConditional on whether SMQ analysis is done.", "label": "SMQ zz Scope", "name": "SMQzzSC", "ordinal": "96", "simpleDatatype": "Char", "valueList": ["BROAD", "NARROW"]}, {"_links": {"parentDatastructure": {"href": "/mdr/adam/adam-occds-1-0/datastructures/OCCDS", "title": "Occurrence Data Structure", "type": "Data Structure"}, "parentProduct": {"href": "/mdr/adam/adam-occds-1-0", "title": "ADaM Structure for Occurrence Data (OCCDS) Version 1.0", "type": "Implementation Guide"}, "parentVariableSet": {"href": "/mdr/adam/adam-occds-1-0/datastructures/OCCDS/varsets/StandardizedMedDRAQuery", "title": "Standardized MedDRA Query Variables", "type": "Variable Set"}, "priorVersion": {"href": "/mdr/adam/adam-adae-1-0/datastructures/ADAE/variables/SMQzzSCN", "title": "SMQ zz Scope (N)", "type": "Analysis Variable"}, "self": {"href": "/mdr/adam/adam-occds-1-0/datastructures/OCCDS/variables/SMQzzSCN", "title": "SMQ zz Scope (N)", "type": "Analysis Variable"}}, "core": "Perm", "description": "Will be null for terms that do not meet the criteria.", "label": "SMQ zz Scope (N)", "name": "SMQzzSCN", "ordinal": "97", "simpleDatatype": "Num", "valueList": ["1", "2"]}, {"_links": {"parentDatastructure": {"href": "/mdr/adam/adam-occds-1-0/datastructures/OCCDS", "title": "Occurrence Data Structure", "type": "Data Structure"}, "parentProduct": {"href": "/mdr/adam/adam-occds-1-0", "title": "ADaM Structure for Occurrence Data (OCCDS) Version 1.0", "type": "Implementation Guide"}, "parentVariableSet": {"href": "/mdr/adam/adam-occds-1-0/datastructures/OCCDS/varsets/StandardizedMedDRAQuery", "title": "Standardized MedDRA Query Variables", "type": "Variable Set"}, "priorVersion": {"href": "/mdr/adam/adam-adae-1-0/datastructures/ADAE/variables/CQzzNAM", "title": "Customized Query zz Name", "type": "Analysis Variable"}, "self": {"href": "/mdr/adam/adam-occds-1-0/datastructures/OCCDS/variables/CQzzNAM", "title": "Customized Query zz Name", "type": "Analysis Variable"}}, "core": "Cond", "description": "The customized query (CQ) name or name of the AE of special interest category based on a grouping of terms. Would be blank for terms that are not in the CQ.\nConditional on whether CQ analysis is done.\nExamples: \"DERMATOLOGICAL EVENTS\" \"CARDIAC EVENTS\", \"IARS (INFUSION ASSOCIATED REACTIONS)\"", "label": "Customized Query zz Name", "name": "CQzzNAM", "ordinal": "98", "simpleDatatype": "Char"}], "label": "Standardized MedDRA Query Variables", "name": "Standardized MedDRA Query Variables", "ordinal": "16"}, {"_links": {"parentDatastructure": {"href": "/mdr/adam/adam-occds-1-0/datastructures/OCCDS", "title": "Occurrence Data Structure", "type": "Data Structure"}, "parentProduct": {"href": "/mdr/adam/adam-occds-1-0", "title": "ADaM Structure for Occurrence Data (OCCDS) Version 1.0", "type": "Implementation Guide"}, "self": {"href": "/mdr/adam/adam-occds-1-0/datastructures/OCCDS/varsets/OriginalOrPriorMedDRACoding", "title": "Original or Prior MedDRA Coding Variables", "type": "Variable Set"}}, "analysisVariables": [{"_links": {"parentDatastructure": {"href": "/mdr/adam/adam-occds-1-0/datastructures/OCCDS", "title": "Occurrence Data Structure", "type": "Data Structure"}, "parentProduct": {"href": "/mdr/adam/adam-occds-1-0", "title": "ADaM Structure for Occurrence Data (OCCDS) Version 1.0", "type": "Implementation Guide"}, "parentVariableSet": {"href": "/mdr/adam/adam-occds-1-0/datastructures/OCCDS/varsets/OriginalOrPriorMedDRACoding", "title": "Original or Prior MedDRA Coding Variables", "type": "Variable Set"}, "priorVersion": {"href": "/mdr/adam/adam-adae-1-0/datastructures/ADAE/variables/DECDORGy", "title": "PT in Original Dictionary y", "type": "Analysis Variable"}, "self": {"href": "/mdr/adam/adam-occds-1-0/datastructures/OCCDS/variables/DECDORGw1", "title": "PT in Original Dictionary w", "type": "Analysis Variable"}}, "core": "Perm", "describedValueDomain": "MedDRA", "description": "Original preferred term coding of XX.--TERM using MedDRA or other dictionary version\nX.X.", "label": "PT in Original Dictionary w", "name": "DECDORGw", "ordinal": "99", "simpleDatatype": "Char"}, {"_links": {"parentDatastructure": {"href": "/mdr/adam/adam-occds-1-0/datastructures/OCCDS", "title": "Occurrence Data Structure", "type": "Data Structure"}, "parentProduct": {"href": "/mdr/adam/adam-occds-1-0", "title": "ADaM Structure for Occurrence Data (OCCDS) Version 1.0", "type": "Implementation Guide"}, "parentVariableSet": {"href": "/mdr/adam/adam-occds-1-0/datastructures/OCCDS/varsets/OriginalOrPriorMedDRACoding", "title": "Original or Prior MedDRA Coding Variables", "type": "Variable Set"}, "priorVersion": {"href": "/mdr/adam/adam-adae-1-0/datastructures/ADAE/variables/BDSYORGy", "title": "SOC in Original Dictionary y", "type": "Analysis Variable"}, "self": {"href": "/mdr/adam/adam-occds-1-0/datastructures/OCCDS/variables/BDSYORGw", "title": "SOC in Original Dictionary w", "type": "Analysis Variable"}}, "core": "Perm", "describedValueDomain": "MedDRA", "description": "Original body system coding of XX.--TERM using MedDRA or other dictionary version\nX.X.", "label": "SOC in Original Dictionary w", "name": "BDSYORGw", "ordinal": "100", "simpleDatatype": "Char"}, {"_links": {"parentDatastructure": {"href": "/mdr/adam/adam-occds-1-0/datastructures/OCCDS", "title": "Occurrence Data Structure", "type": "Data Structure"}, "parentProduct": {"href": "/mdr/adam/adam-occds-1-0", "title": "ADaM Structure for Occurrence Data (OCCDS) Version 1.0", "type": "Implementation Guide"}, "parentVariableSet": {"href": "/mdr/adam/adam-occds-1-0/datastructures/OCCDS/varsets/OriginalOrPriorMedDRACoding", "title": "Original or Prior MedDRA Coding Variables", "type": "Variable Set"}, "priorVersion": {"href": "/mdr/adam/adam-adae-1-0/datastructures/ADAE/variables/HLGTORGy", "title": "HLGT in Original Dictionary y", "type": "Analysis Variable"}, "self": {"href": "/mdr/adam/adam-occds-1-0/datastructures/OCCDS/variables/HLGTORGw", "title": "HLGT in Original Dictionary w", "type": "Analysis Variable"}}, "core": "Perm", "describedValueDomain": "MedDRA", "description": "Original HLGT coding of XX.--TERM using MedDRA or other dictionary version X.X", "label": "HLGT in Original Dictionary w", "name": "HLGTORGw", "ordinal": "101", "simpleDatatype": "Char"}, {"_links": {"parentDatastructure": {"href": "/mdr/adam/adam-occds-1-0/datastructures/OCCDS", "title": "Occurrence Data Structure", "type": "Data Structure"}, "parentProduct": {"href": "/mdr/adam/adam-occds-1-0", "title": "ADaM Structure for Occurrence Data (OCCDS) Version 1.0", "type": "Implementation Guide"}, "parentVariableSet": {"href": "/mdr/adam/adam-occds-1-0/datastructures/OCCDS/varsets/OriginalOrPriorMedDRACoding", "title": "Original or Prior MedDRA Coding Variables", "type": "Variable Set"}, "priorVersion": {"href": "/mdr/adam/adam-adae-1-0/datastructures/ADAE/variables/HLTORGy", "title": "HLT in Original Dictionary y", "type": "Analysis Variable"}, "self": {"href": "/mdr/adam/adam-occds-1-0/datastructures/OCCDS/variables/HLTORGw", "title": "HLT in Original Dictionary w", "type": "Analysis Variable"}}, "core": "Perm", "describedValueDomain": "MedDRA", "description": "Original HLT coding of XX.--TERM using MedDRA or other dictionary version X.X.", "label": "HLT in Original Dictionary w", "name": "HLTORGw", "ordinal": "102", "simpleDatatype": "Char"}, {"_links": {"parentDatastructure": {"href": "/mdr/adam/adam-occds-1-0/datastructures/OCCDS", "title": "Occurrence Data Structure", "type": "Data Structure"}, "parentProduct": {"href": "/mdr/adam/adam-occds-1-0", "title": "ADaM Structure for Occurrence Data (OCCDS) Version 1.0", "type": "Implementation Guide"}, "parentVariableSet": {"href": "/mdr/adam/adam-occds-1-0/datastructures/OCCDS/varsets/OriginalOrPriorMedDRACoding", "title": "Original or Prior MedDRA Coding Variables", "type": "Variable Set"}, "priorVersion": {"href": "/mdr/adam/adam-adae-1-0/datastructures/ADAE/variables/LLTORGy", "title": "LLT in Original Dictionary y", "type": "Analysis Variable"}, "self": {"href": "/mdr/adam/adam-occds-1-0/datastructures/OCCDS/variables/LLTORGw", "title": "LLT in Original Dictionary w", "type": "Analysis Variable"}}, "core": "Perm", "describedValueDomain": "MedDRA", "description": "Original LLT coding of XX.--TERM using MedDRA or other dictionary version X.X.", "label": "LLT in Original Dictionary w", "name": "LLTORGw", "ordinal": "103", "simpleDatatype": "Char"}, {"_links": {"parentDatastructure": {"href": "/mdr/adam/adam-occds-1-0/datastructures/OCCDS", "title": "Occurrence Data Structure", "type": "Data Structure"}, "parentProduct": {"href": "/mdr/adam/adam-occds-1-0", "title": "ADaM Structure for Occurrence Data (OCCDS) Version 1.0", "type": "Implementation Guide"}, "parentVariableSet": {"href": "/mdr/adam/adam-occds-1-0/datastructures/OCCDS/varsets/OriginalOrPriorMedDRACoding", "title": "Original or Prior MedDRA Coding Variables", "type": "Variable Set"}, "priorVersion": {"href": "/mdr/adam/adam-adae-1-0/datastructures/ADAE/variables/LLTNORGy", "title": "LLT Code in Original Dictionary y", "type": "Analysis Variable"}, "self": {"href": "/mdr/adam/adam-occds-1-0/datastructures/OCCDS/variables/LLTNORGw", "title": "LLT Code in Original Dictionary w", "type": "Analysis Variable"}}, "core": "Perm", "describedValueDomain": "MedDRA", "description": "Original LLT code of XX.--TERM using MedDRA or other dictionary version X.X.", "label": "LLT Code in Original Dictionary w", "name": "LLTNORGw", "ordinal": "104", "simpleDatatype": "Char"}], "label": "Original or Prior MedDRA Coding Variables", "name": "Original or Prior MedDRA Coding Variables", "ordinal": "17"}, {"_links": {"parentDatastructure": {"href": "/mdr/adam/adam-occds-1-0/datastructures/OCCDS", "title": "Occurrence Data Structure", "type": "Data Structure"}, "parentProduct": {"href": "/mdr/adam/adam-occds-1-0", "title": "ADaM Structure for Occurrence Data (OCCDS) Version 1.0", "type": "Implementation Guide"}, "self": {"href": "/mdr/adam/adam-occds-1-0/datastructures/OCCDS/varsets/OriginalOrPriorWHODrugCoding", "title": "Original or Prior WHO Drug Coding Variables", "type": "Variable Set"}}, "analysisVariables": [{"_links": {"parentDatastructure": {"href": "/mdr/adam/adam-occds-1-0/datastructures/OCCDS", "title": "Occurrence Data Structure", "type": "Data Structure"}, "parentProduct": {"href": "/mdr/adam/adam-occds-1-0", "title": "ADaM Structure for Occurrence Data (OCCDS) Version 1.0", "type": "Implementation Guide"}, "parentVariableSet": {"href": "/mdr/adam/adam-occds-1-0/datastructures/OCCDS/varsets/OriginalOrPriorWHODrugCoding", "title": "Original or Prior WHO Drug Coding Variables", "type": "Variable Set"}, "priorVersion": {"href": "/mdr/adam/adam-adae-1-0/datastructures/ADAE/variables/DECDORGy", "title": "PT in Original Dictionary y", "type": "Analysis Variable"}, "self": {"href": "/mdr/adam/adam-occds-1-0/datastructures/OCCDS/variables/DECDORGw2", "title": "Standardized Med Name in Orig Dict w", "type": "Analysis Variable"}}, "core": "Perm", "describedValueDomain": "WHO Drug", "description": "Original standardized medication name of CM.CMTRT using WHO Drug\nversion X.X", "label": "Standardized Med Name in Orig Dict w", "name": "DECDORGw", "ordinal": "105", "simpleDatatype": "Char"}, {"_links": {"parentDatastructure": {"href": "/mdr/adam/adam-occds-1-0/datastructures/OCCDS", "title": "Occurrence Data Structure", "type": "Data Structure"}, "parentProduct": {"href": "/mdr/adam/adam-occds-1-0", "title": "ADaM Structure for Occurrence Data (OCCDS) Version 1.0", "type": "Implementation Guide"}, "parentVariableSet": {"href": "/mdr/adam/adam-occds-1-0/datastructures/OCCDS/varsets/OriginalOrPriorWHODrugCoding", "title": "Original or Prior WHO Drug Coding Variables", "type": "Variable Set"}, "self": {"href": "/mdr/adam/adam-occds-1-0/datastructures/OCCDS/variables/CLASORGw", "title": "Medication Class in Orig Dictionary w", "type": "Analysis Variable"}}, "core": "Perm", "describedValueDomain": "WHO Drug", "description": "Original medication class of CM.CMTRT using WHO Drug version X.X", "label": "Medication Class in Orig Dictionary w", "name": "CLASORGw", "ordinal": "106", "simpleDatatype": "Char"}, {"_links": {"parentDatastructure": {"href": "/mdr/adam/adam-occds-1-0/datastructures/OCCDS", "title": "Occurrence Data Structure", "type": "Data Structure"}, "parentProduct": {"href": "/mdr/adam/adam-occds-1-0", "title": "ADaM Structure for Occurrence Data (OCCDS) Version 1.0", "type": "Implementation Guide"}, "parentVariableSet": {"href": "/mdr/adam/adam-occds-1-0/datastructures/OCCDS/varsets/OriginalOrPriorWHODrugCoding", "title": "Original or Prior WHO Drug Coding Variables", "type": "Variable Set"}, "self": {"href": "/mdr/adam/adam-occds-1-0/datastructures/OCCDS/variables/CLCDORGw", "title": "Medication Class Code in Orig Dict w", "type": "Analysis Variable"}}, "core": "Perm", "describedValueDomain": "WHO Drug", "description": "Original medication class code of CM.CMTRT using WHO Drug version X.X", "label": "Medication Class Code in Orig Dict w", "name": "CLCDORGw", "ordinal": "107", "simpleDatatype": "Char"}, {"_links": {"parentDatastructure": {"href": "/mdr/adam/adam-occds-1-0/datastructures/OCCDS", "title": "Occurrence Data Structure", "type": "Data Structure"}, "parentProduct": {"href": "/mdr/adam/adam-occds-1-0", "title": "ADaM Structure for Occurrence Data (OCCDS) Version 1.0", "type": "Implementation Guide"}, "parentVariableSet": {"href": "/mdr/adam/adam-occds-1-0/datastructures/OCCDS/varsets/OriginalOrPriorWHODrugCoding", "title": "Original or Prior WHO Drug Coding Variables", "type": "Variable Set"}, "self": {"href": "/mdr/adam/adam-occds-1-0/datastructures/OCCDS/variables/ATyCORGw", "title": "ATC Level y Code in Orig Dictionary w", "type": "Analysis Variable"}}, "core": "Perm", "describedValueDomain": "WHO Drug", "description": "Original ATC Level y code of CM.CMTRT using WHO Drug version X.X", "label": "ATC Level y Code in Orig Dictionary w", "name": "ATyCORGw", "ordinal": "108", "simpleDatatype": "Char"}, {"_links": {"parentDatastructure": {"href": "/mdr/adam/adam-occds-1-0/datastructures/OCCDS", "title": "Occurrence Data Structure", "type": "Data Structure"}, "parentProduct": {"href": "/mdr/adam/adam-occds-1-0", "title": "ADaM Structure for Occurrence Data (OCCDS) Version 1.0", "type": "Implementation Guide"}, "parentVariableSet": {"href": "/mdr/adam/adam-occds-1-0/datastructures/OCCDS/varsets/OriginalOrPriorWHODrugCoding", "title": "Original or Prior WHO Drug Coding Variables", "type": "Variable Set"}, "self": {"href": "/mdr/adam/adam-occds-1-0/datastructures/OCCDS/variables/ATyTORGw", "title": "ATC Level y Text in Orig Dictionary w", "type": "Analysis Variable"}}, "core": "Perm", "describedValueDomain": "WHO Drug", "description": "Original ATC Level y text of CM.CMTRT using WHO Drug version X.X", "label": "ATC Level y Text in Orig Dictionary w", "name": "ATyTORGw", "ordinal": "109", "simpleDatatype": "Char"}], "label": "Original or Prior WHO Drug Coding Variables", "name": "Original or Prior WHO Drug Coding Variables", "ordinal": "18"}], "class": "OCCDS", "description": "One record per record in SDTM domain (optional: per coding path, per Analysis Period and/or Phase)", "label": "Occurrence Data Structure", "name": "OCCDS", "ordinal": "1"}], "description": "The statistical analysis data structure presented in this document describes the general data structure and content typically found in occurrence analysis. Occurrence analysis is the counting of subjects with a given record or term, and often includes a structured hierarchy of dictionary coding categories. Examples of data that fit into this structure include those used for typical analysis of Adverse Events, Concomitant Medications, and Medical History. The structure is based on the ADaM Analysis Data Model V2.1 [1] and the ADaM Analysis Data Model Implementation Guide (ADaMIG) V1.1 [2].\n\nThis document is based on the document titled \"Analysis Data Model (ADaM) Data Structure for Adverse Event Analysis\" released by the CDISC ADaM team on May 10, 2012. It replaces this earlier document, making it more generic and applicable to analysis of more than just adverse event data.", "effectiveDate": "2016-02-12", "label": "ADaM Structure for Occurrence Data (OCCDS) Version 1.0", "name": "ADaM OCCDS v1.0", "registrationStatus": "Final", "source": "Prepared by the CDISC Analysis Data Model Team", "version": "1.0"}
