{
    "_links": {
        "model": {
            "href": "/mdr/adam/adam-2-1",
            "title": "Analysis Data Model Version 2.1",
            "type": "Foundational Model"
        },
        "priorVersion": {
            "href": "/mdr/adam/adamig-1-2",
            "title": "Analysis Data Model Implementation Guide Version 1.2",
            "type": "Implementation Guide"
        },
        "self": {
            "href": "/mdr/adam/adamig-1-3",
            "title": "Analysis Data Model Implementation Guide Version 1.3",
            "type": "Implementation Guide"
        }
    },
    "dataStructures": [
        {
            "_links": {
                "parentProduct": {
                    "href": "/mdr/adam/adamig-1-3",
                    "title": "Analysis Data Model Implementation Guide Version 1.3",
                    "type": "Implementation Guide"
                },
                "priorVersion": {
                    "href": "/mdr/adam/adamig-1-2/datastructures/ADSL",
                    "title": "Subject-Level Analysis Dataset Structure",
                    "type": "Data Structure"
                },
                "self": {
                    "href": "/mdr/adam/adamig-1-3/datastructures/ADSL",
                    "title": "Subject-Level Analysis Dataset Structure",
                    "type": "Data Structure"
                }
            },
            "analysisVariableSets": [
                {
                    "_links": {
                        "parentDatastructure": {
                            "href": "/mdr/adam/adamig-1-3/datastructures/ADSL",
                            "title": "Subject-Level Analysis Dataset Structure",
                            "type": "Data Structure"
                        },
                        "parentProduct": {
                            "href": "/mdr/adam/adamig-1-3",
                            "title": "Analysis Data Model Implementation Guide Version 1.3",
                            "type": "Implementation Guide"
                        },
                        "priorVersion": {
                            "href": "/mdr/adam/adamig-1-2/datastructures/ADSL/varsets/Identifier",
                            "title": "ADSL Identifier Variables",
                            "type": "Variable Set"
                        },
                        "self": {
                            "href": "/mdr/adam/adamig-1-3/datastructures/ADSL/varsets/Identifier",
                            "title": "ADSL Identifier",
                            "type": "Variable Set"
                        }
                    },
                    "analysisVariables": [
                        {
                            "_links": {
                                "parentDatastructure": {
                                    "href": "/mdr/adam/adamig-1-3/datastructures/ADSL",
                                    "title": "Subject-Level Analysis Dataset Structure",
                                    "type": "Data Structure"
                                },
                                "parentProduct": {
                                    "href": "/mdr/adam/adamig-1-3",
                                    "title": "Analysis Data Model Implementation Guide Version 1.3",
                                    "type": "Implementation Guide"
                                },
                                "parentVariableSet": {
                                    "href": "/mdr/adam/adamig-1-3/datastructures/ADSL/varsets/Identifier",
                                    "title": "ADSL Identifier",
                                    "type": "Variable Set"
                                },
                                "priorVersion": {
                                    "href": "/mdr/adam/adamig-1-2/datastructures/ADSL/variables/STUDYID",
                                    "title": "Study Identifier",
                                    "type": "Analysis Variable"
                                },
                                "self": {
                                    "href": "/mdr/adam/adamig-1-3/datastructures/ADSL/variables/STUDYID",
                                    "title": "Study Identifier",
                                    "type": "Analysis Variable"
                                }
                            },
                            "core": "Req",
                            "description": "DM.STUDYID",
                            "label": "Study Identifier",
                            "name": "STUDYID",
                            "ordinal": "1",
                            "simpleDatatype": "Char"
                        },
                        {
                            "_links": {
                                "parentDatastructure": {
                                    "href": "/mdr/adam/adamig-1-3/datastructures/ADSL",
                                    "title": "Subject-Level Analysis Dataset Structure",
                                    "type": "Data Structure"
                                },
                                "parentProduct": {
                                    "href": "/mdr/adam/adamig-1-3",
                                    "title": "Analysis Data Model Implementation Guide Version 1.3",
                                    "type": "Implementation Guide"
                                },
                                "parentVariableSet": {
                                    "href": "/mdr/adam/adamig-1-3/datastructures/ADSL/varsets/Identifier",
                                    "title": "ADSL Identifier",
                                    "type": "Variable Set"
                                },
                                "priorVersion": {
                                    "href": "/mdr/adam/adamig-1-2/datastructures/ADSL/variables/USUBJID",
                                    "title": "Unique Subject Identifier",
                                    "type": "Analysis Variable"
                                },
                                "self": {
                                    "href": "/mdr/adam/adamig-1-3/datastructures/ADSL/variables/USUBJID",
                                    "title": "Unique Subject Identifier",
                                    "type": "Analysis Variable"
                                }
                            },
                            "core": "Req",
                            "description": "DM.USUBJID",
                            "label": "Unique Subject Identifier",
                            "name": "USUBJID",
                            "ordinal": "2",
                            "simpleDatatype": "Char"
                        },
                        {
                            "_links": {
                                "parentDatastructure": {
                                    "href": "/mdr/adam/adamig-1-3/datastructures/ADSL",
                                    "title": "Subject-Level Analysis Dataset Structure",
                                    "type": "Data Structure"
                                },
                                "parentProduct": {
                                    "href": "/mdr/adam/adamig-1-3",
                                    "title": "Analysis Data Model Implementation Guide Version 1.3",
                                    "type": "Implementation Guide"
                                },
                                "parentVariableSet": {
                                    "href": "/mdr/adam/adamig-1-3/datastructures/ADSL/varsets/Identifier",
                                    "title": "ADSL Identifier",
                                    "type": "Variable Set"
                                },
                                "priorVersion": {
                                    "href": "/mdr/adam/adamig-1-2/datastructures/ADSL/variables/USUBJID",
                                    "title": "Unique Subject Identifier",
                                    "type": "Analysis Variable"
                                },
                                "self": {
                                    "href": "/mdr/adam/adamig-1-3/datastructures/ADSL/variables/SUBJID",
                                    "title": "Subject Identifier for the Study",
                                    "type": "Analysis Variable"
                                }
                            },
                            "core": "Req",
                            "description": "DM.SUBJID. SUBJID is required in ADSL, but permissible in other datasets.",
                            "label": "Subject Identifier for the Study",
                            "name": "SUBJID",
                            "ordinal": "3",
                            "simpleDatatype": "Char"
                        },
                        {
                            "_links": {
                                "parentDatastructure": {
                                    "href": "/mdr/adam/adamig-1-3/datastructures/ADSL",
                                    "title": "Subject-Level Analysis Dataset Structure",
                                    "type": "Data Structure"
                                },
                                "parentProduct": {
                                    "href": "/mdr/adam/adamig-1-3",
                                    "title": "Analysis Data Model Implementation Guide Version 1.3",
                                    "type": "Implementation Guide"
                                },
                                "parentVariableSet": {
                                    "href": "/mdr/adam/adamig-1-3/datastructures/ADSL/varsets/Identifier",
                                    "title": "ADSL Identifier",
                                    "type": "Variable Set"
                                },
                                "priorVersion": {
                                    "href": "/mdr/adam/adamig-1-2/datastructures/ADSL/variables/SITEID",
                                    "title": "Study Site Identifier",
                                    "type": "Analysis Variable"
                                },
                                "self": {
                                    "href": "/mdr/adam/adamig-1-3/datastructures/ADSL/variables/SITEID",
                                    "title": "Study Site Identifier",
                                    "type": "Analysis Variable"
                                }
                            },
                            "core": "Req",
                            "description": "DM.SITEID. SITEID is required in ADSL, but permissible in other datasets.",
                            "label": "Study Site Identifier",
                            "name": "SITEID",
                            "ordinal": "4",
                            "simpleDatatype": "Char"
                        },
                        {
                            "_links": {
                                "parentDatastructure": {
                                    "href": "/mdr/adam/adamig-1-3/datastructures/ADSL",
                                    "title": "Subject-Level Analysis Dataset Structure",
                                    "type": "Data Structure"
                                },
                                "parentProduct": {
                                    "href": "/mdr/adam/adamig-1-3",
                                    "title": "Analysis Data Model Implementation Guide Version 1.3",
                                    "type": "Implementation Guide"
                                },
                                "parentVariableSet": {
                                    "href": "/mdr/adam/adamig-1-3/datastructures/ADSL/varsets/Identifier",
                                    "title": "ADSL Identifier",
                                    "type": "Variable Set"
                                },
                                "priorVersion": {
                                    "href": "/mdr/adam/adamig-1-2/datastructures/ADSL/variables/SITEGRy",
                                    "title": "Pooled Site Group y",
                                    "type": "Analysis Variable"
                                },
                                "self": {
                                    "href": "/mdr/adam/adamig-1-3/datastructures/ADSL/variables/SITEGRy",
                                    "title": "Pooled Site Group y",
                                    "type": "Analysis Variable"
                                }
                            },
                            "core": "Perm",
                            "description": "Character description of a grouping or pooling of clinical sites for analysis purposes. For example, SITEGR3 is the name of a variable containing site group (pooled site) names, where the grouping has been done according to the third site grouping algorithm, defined in variable metadata; SITEGR3 does not mean the third group of sites.",
                            "label": "Pooled Site Group y",
                            "name": "SITEGRy",
                            "ordinal": "5",
                            "simpleDatatype": "Char"
                        },
                        {
                            "_links": {
                                "parentDatastructure": {
                                    "href": "/mdr/adam/adamig-1-3/datastructures/ADSL",
                                    "title": "Subject-Level Analysis Dataset Structure",
                                    "type": "Data Structure"
                                },
                                "parentProduct": {
                                    "href": "/mdr/adam/adamig-1-3",
                                    "title": "Analysis Data Model Implementation Guide Version 1.3",
                                    "type": "Implementation Guide"
                                },
                                "parentVariableSet": {
                                    "href": "/mdr/adam/adamig-1-3/datastructures/ADSL/varsets/Identifier",
                                    "title": "ADSL Identifier",
                                    "type": "Variable Set"
                                },
                                "priorVersion": {
                                    "href": "/mdr/adam/adamig-1-2/datastructures/ADSL/variables/SITEGRyN",
                                    "title": "Pooled Site Group y (N)",
                                    "type": "Analysis Variable"
                                },
                                "self": {
                                    "href": "/mdr/adam/adamig-1-3/datastructures/ADSL/variables/SITEGRyN",
                                    "title": "Pooled Site Group y (N)",
                                    "type": "Analysis Variable"
                                }
                            },
                            "core": "Perm",
                            "description": "Numeric representation of SITEGRy. There must be a one-to-one relationship between SITEGRyN and SITEGRy within a study. \\n SITEGRyN cannot be present unless SITEGRy is also present. When SITEGRy and SITEGRyN are present, then on a given record, either both must be populated or both must be null.",
                            "label": "Pooled Site Group y (N)",
                            "name": "SITEGRyN",
                            "ordinal": "6",
                            "simpleDatatype": "Num"
                        },
                        {
                            "_links": {
                                "parentDatastructure": {
                                    "href": "/mdr/adam/adamig-1-3/datastructures/ADSL",
                                    "title": "Subject-Level Analysis Dataset Structure",
                                    "type": "Data Structure"
                                },
                                "parentProduct": {
                                    "href": "/mdr/adam/adamig-1-3",
                                    "title": "Analysis Data Model Implementation Guide Version 1.3",
                                    "type": "Implementation Guide"
                                },
                                "parentVariableSet": {
                                    "href": "/mdr/adam/adamig-1-3/datastructures/ADSL/varsets/Identifier",
                                    "title": "ADSL Identifier",
                                    "type": "Variable Set"
                                },
                                "priorVersion": {
                                    "href": "/mdr/adam/adamig-1-2/datastructures/ADSL/variables/REGIONy",
                                    "title": "Geographic Region y",
                                    "type": "Analysis Variable"
                                },
                                "self": {
                                    "href": "/mdr/adam/adamig-1-3/datastructures/ADSL/variables/REGIONy",
                                    "title": "Geographic Region y",
                                    "type": "Analysis Variable"
                                }
                            },
                            "core": "Perm",
                            "description": "Character description of geographical region. For example, REGION1 might have values of \"Asia\", \"Europe\", \"North America\", \"Rest of World\"; REGION2 might have values of \"United States\", \"Rest of World\".",
                            "label": "Geographic Region y",
                            "name": "REGIONy",
                            "ordinal": "7",
                            "simpleDatatype": "Char"
                        },
                        {
                            "_links": {
                                "parentDatastructure": {
                                    "href": "/mdr/adam/adamig-1-3/datastructures/ADSL",
                                    "title": "Subject-Level Analysis Dataset Structure",
                                    "type": "Data Structure"
                                },
                                "parentProduct": {
                                    "href": "/mdr/adam/adamig-1-3",
                                    "title": "Analysis Data Model Implementation Guide Version 1.3",
                                    "type": "Implementation Guide"
                                },
                                "parentVariableSet": {
                                    "href": "/mdr/adam/adamig-1-3/datastructures/ADSL/varsets/Identifier",
                                    "title": "ADSL Identifier",
                                    "type": "Variable Set"
                                },
                                "priorVersion": {
                                    "href": "/mdr/adam/adamig-1-2/datastructures/ADSL/variables/REGIONyN",
                                    "title": "Geographic Region y (N)",
                                    "type": "Analysis Variable"
                                },
                                "self": {
                                    "href": "/mdr/adam/adamig-1-3/datastructures/ADSL/variables/REGIONyN",
                                    "title": "Geographic Region y (N)",
                                    "type": "Analysis Variable"
                                }
                            },
                            "core": "Perm",
                            "description": "Numeric representation of REGIONy. Orders REGIONy for analysis and reporting.There must be a one-to-one relationship between REGIONyN and REGIONy within a study. \\n REGIONyN cannot be present unless REGIONy is also present. When REGIONy and REGIONyN are present, then on a given record, either both must be populated or both must be null.",
                            "label": "Geographic Region y (N)",
                            "name": "REGIONyN",
                            "ordinal": "8",
                            "simpleDatatype": "Num"
                        }
                    ],
                    "label": "ADSL Identifier",
                    "name": "Identifier",
                    "ordinal": "1"
                },
                {
                    "_links": {
                        "parentDatastructure": {
                            "href": "/mdr/adam/adamig-1-3/datastructures/ADSL",
                            "title": "Subject-Level Analysis Dataset Structure",
                            "type": "Data Structure"
                        },
                        "parentProduct": {
                            "href": "/mdr/adam/adamig-1-3",
                            "title": "Analysis Data Model Implementation Guide Version 1.3",
                            "type": "Implementation Guide"
                        },
                        "priorVersion": {
                            "href": "/mdr/adam/adamig-1-2/datastructures/ADSL/varsets/SubjectDemographics",
                            "title": "ADSL Subject Demographics Variables",
                            "type": "Variable Set"
                        },
                        "self": {
                            "href": "/mdr/adam/adamig-1-3/datastructures/ADSL/varsets/SubjectDemographics",
                            "title": "ADSL Subject Demographics",
                            "type": "Variable Set"
                        }
                    },
                    "analysisVariables": [
                        {
                            "_links": {
                                "parentDatastructure": {
                                    "href": "/mdr/adam/adamig-1-3/datastructures/ADSL",
                                    "title": "Subject-Level Analysis Dataset Structure",
                                    "type": "Data Structure"
                                },
                                "parentProduct": {
                                    "href": "/mdr/adam/adamig-1-3",
                                    "title": "Analysis Data Model Implementation Guide Version 1.3",
                                    "type": "Implementation Guide"
                                },
                                "parentVariableSet": {
                                    "href": "/mdr/adam/adamig-1-3/datastructures/ADSL/varsets/SubjectDemographics",
                                    "title": "ADSL Subject Demographics",
                                    "type": "Variable Set"
                                },
                                "priorVersion": {
                                    "href": "/mdr/adam/adamig-1-2/datastructures/ADSL/variables/AGE",
                                    "title": "Age",
                                    "type": "Analysis Variable"
                                },
                                "self": {
                                    "href": "/mdr/adam/adamig-1-3/datastructures/ADSL/variables/AGE",
                                    "title": "Age",
                                    "type": "Analysis Variable"
                                }
                            },
                            "core": "Req",
                            "description": "DM.AGE. If analysis needs require a derived age that does not match DM.AGE, then AAGE must be added",
                            "label": "Age",
                            "name": "AGE",
                            "ordinal": "1",
                            "simpleDatatype": "Num"
                        },
                        {
                            "_links": {
                                "codelist": [
                                    {
                                        "href": "/mdr/root/ct/sdtmct/codelists/C66781",
                                        "title": "Version-agnostic anchor resource for codelist C66781",
                                        "type": "Root Value Domain"
                                    }
                                ],
                                "parentDatastructure": {
                                    "href": "/mdr/adam/adamig-1-3/datastructures/ADSL",
                                    "title": "Subject-Level Analysis Dataset Structure",
                                    "type": "Data Structure"
                                },
                                "parentProduct": {
                                    "href": "/mdr/adam/adamig-1-3",
                                    "title": "Analysis Data Model Implementation Guide Version 1.3",
                                    "type": "Implementation Guide"
                                },
                                "parentVariableSet": {
                                    "href": "/mdr/adam/adamig-1-3/datastructures/ADSL/varsets/SubjectDemographics",
                                    "title": "ADSL Subject Demographics",
                                    "type": "Variable Set"
                                },
                                "priorVersion": {
                                    "href": "/mdr/adam/adamig-1-2/datastructures/ADSL/variables/AGEU",
                                    "title": "Age Units",
                                    "type": "Analysis Variable"
                                },
                                "self": {
                                    "href": "/mdr/adam/adamig-1-3/datastructures/ADSL/variables/AGEU",
                                    "title": "Age Units",
                                    "type": "Analysis Variable"
                                }
                            },
                            "codelistSubmissionValues": [
                                "AGEU"
                            ],
                            "core": "Req",
                            "description": "DM.AGEU",
                            "label": "Age Units",
                            "name": "AGEU",
                            "ordinal": "2",
                            "simpleDatatype": "Char"
                        },
                        {
                            "_links": {
                                "parentDatastructure": {
                                    "href": "/mdr/adam/adamig-1-3/datastructures/ADSL",
                                    "title": "Subject-Level Analysis Dataset Structure",
                                    "type": "Data Structure"
                                },
                                "parentProduct": {
                                    "href": "/mdr/adam/adamig-1-3",
                                    "title": "Analysis Data Model Implementation Guide Version 1.3",
                                    "type": "Implementation Guide"
                                },
                                "parentVariableSet": {
                                    "href": "/mdr/adam/adamig-1-3/datastructures/ADSL/varsets/SubjectDemographics",
                                    "title": "ADSL Subject Demographics",
                                    "type": "Variable Set"
                                },
                                "priorVersion": {
                                    "href": "/mdr/adam/adamig-1-2/datastructures/ADSL/variables/AGEGRy",
                                    "title": "Pooled Age Group y",
                                    "type": "Analysis Variable"
                                },
                                "self": {
                                    "href": "/mdr/adam/adamig-1-3/datastructures/ADSL/variables/AGEGRy",
                                    "title": "Pooled Age Group y",
                                    "type": "Analysis Variable"
                                }
                            },
                            "core": "Perm",
                            "description": "Character description of a grouping or pooling of the subject's age for analysis purposes. For example, AGEGR1 might have values of \"<18\", \"18-65\", and \">65\"; AGEGR2 might have values of \"Less than 35 y old\" and \"At least 35 y old\".",
                            "label": "Pooled Age Group y",
                            "name": "AGEGRy",
                            "ordinal": "3",
                            "simpleDatatype": "Char"
                        },
                        {
                            "_links": {
                                "parentDatastructure": {
                                    "href": "/mdr/adam/adamig-1-3/datastructures/ADSL",
                                    "title": "Subject-Level Analysis Dataset Structure",
                                    "type": "Data Structure"
                                },
                                "parentProduct": {
                                    "href": "/mdr/adam/adamig-1-3",
                                    "title": "Analysis Data Model Implementation Guide Version 1.3",
                                    "type": "Implementation Guide"
                                },
                                "parentVariableSet": {
                                    "href": "/mdr/adam/adamig-1-3/datastructures/ADSL/varsets/SubjectDemographics",
                                    "title": "ADSL Subject Demographics",
                                    "type": "Variable Set"
                                },
                                "priorVersion": {
                                    "href": "/mdr/adam/adamig-1-2/datastructures/ADSL/variables/AGEGRyN",
                                    "title": "Pooled Age Group y (N)",
                                    "type": "Analysis Variable"
                                },
                                "self": {
                                    "href": "/mdr/adam/adamig-1-3/datastructures/ADSL/variables/AGEGRyN",
                                    "title": "Pooled Age Group y (N)",
                                    "type": "Analysis Variable"
                                }
                            },
                            "core": "Perm",
                            "description": "Numeric representation of AGEGRy. Orders the grouping or pooling of subject age for analysis and reporting. There must be a one-to-one relationship between AGEGRyN and AGEGRy within a study. \\n AGEGRyN cannot be present unless AGEGRy is also present. When AGEGRy and AGEGRyN are present, then on a given record, either both must be populated or both must be null.",
                            "label": "Pooled Age Group y (N)",
                            "name": "AGEGRyN",
                            "ordinal": "4",
                            "simpleDatatype": "Num"
                        },
                        {
                            "_links": {
                                "parentDatastructure": {
                                    "href": "/mdr/adam/adamig-1-3/datastructures/ADSL",
                                    "title": "Subject-Level Analysis Dataset Structure",
                                    "type": "Data Structure"
                                },
                                "parentProduct": {
                                    "href": "/mdr/adam/adamig-1-3",
                                    "title": "Analysis Data Model Implementation Guide Version 1.3",
                                    "type": "Implementation Guide"
                                },
                                "parentVariableSet": {
                                    "href": "/mdr/adam/adamig-1-3/datastructures/ADSL/varsets/SubjectDemographics",
                                    "title": "ADSL Subject Demographics",
                                    "type": "Variable Set"
                                },
                                "priorVersion": {
                                    "href": "/mdr/adam/adamig-1-2/datastructures/ADSL/variables/AAGE",
                                    "title": "Analysis Age",
                                    "type": "Analysis Variable"
                                },
                                "self": {
                                    "href": "/mdr/adam/adamig-1-3/datastructures/ADSL/variables/AAGE",
                                    "title": "Analysis Age",
                                    "type": "Analysis Variable"
                                }
                            },
                            "core": "Cond",
                            "description": "Age used for analysis that may be derived differently than DM.AGE. AAGE is required if age is calculated differently than DM.AGE.",
                            "label": "Analysis Age",
                            "name": "AAGE",
                            "ordinal": "5",
                            "simpleDatatype": "Num"
                        },
                        {
                            "_links": {
                                "codelist": [
                                    {
                                        "href": "/mdr/root/ct/sdtmct/codelists/C66731",
                                        "title": "Version-agnostic anchor resource for codelist C66731",
                                        "type": "Root Value Domain"
                                    }
                                ],
                                "parentDatastructure": {
                                    "href": "/mdr/adam/adamig-1-3/datastructures/ADSL",
                                    "title": "Subject-Level Analysis Dataset Structure",
                                    "type": "Data Structure"
                                },
                                "parentProduct": {
                                    "href": "/mdr/adam/adamig-1-3",
                                    "title": "Analysis Data Model Implementation Guide Version 1.3",
                                    "type": "Implementation Guide"
                                },
                                "parentVariableSet": {
                                    "href": "/mdr/adam/adamig-1-3/datastructures/ADSL/varsets/SubjectDemographics",
                                    "title": "ADSL Subject Demographics",
                                    "type": "Variable Set"
                                },
                                "priorVersion": {
                                    "href": "/mdr/adam/adamig-1-2/datastructures/ADSL/variables/SEX",
                                    "title": "Sex",
                                    "type": "Analysis Variable"
                                },
                                "self": {
                                    "href": "/mdr/adam/adamig-1-3/datastructures/ADSL/variables/SEX",
                                    "title": "Sex",
                                    "type": "Analysis Variable"
                                }
                            },
                            "codelistSubmissionValues": [
                                "SEX"
                            ],
                            "core": "Req",
                            "description": "DM.SEX.",
                            "label": "Sex",
                            "name": "SEX",
                            "ordinal": "6",
                            "simpleDatatype": "Char"
                        },
                        {
                            "_links": {
                                "codelist": [
                                    {
                                        "href": "/mdr/root/ct/sdtmct/codelists/C74457",
                                        "title": "Version-agnostic anchor resource for codelist C74457",
                                        "type": "Root Value Domain"
                                    }
                                ],
                                "parentDatastructure": {
                                    "href": "/mdr/adam/adamig-1-3/datastructures/ADSL",
                                    "title": "Subject-Level Analysis Dataset Structure",
                                    "type": "Data Structure"
                                },
                                "parentProduct": {
                                    "href": "/mdr/adam/adamig-1-3",
                                    "title": "Analysis Data Model Implementation Guide Version 1.3",
                                    "type": "Implementation Guide"
                                },
                                "parentVariableSet": {
                                    "href": "/mdr/adam/adamig-1-3/datastructures/ADSL/varsets/SubjectDemographics",
                                    "title": "ADSL Subject Demographics",
                                    "type": "Variable Set"
                                },
                                "priorVersion": {
                                    "href": "/mdr/adam/adamig-1-2/datastructures/ADSL/variables/RACE",
                                    "title": "Race",
                                    "type": "Analysis Variable"
                                },
                                "self": {
                                    "href": "/mdr/adam/adamig-1-3/datastructures/ADSL/variables/RACE",
                                    "title": "Race",
                                    "type": "Analysis Variable"
                                }
                            },
                            "codelistSubmissionValues": [
                                "RACE"
                            ],
                            "core": "Req",
                            "description": "DM.RACE.",
                            "label": "Race",
                            "name": "RACE",
                            "ordinal": "7",
                            "simpleDatatype": "Char"
                        },
                        {
                            "_links": {
                                "parentDatastructure": {
                                    "href": "/mdr/adam/adamig-1-3/datastructures/ADSL",
                                    "title": "Subject-Level Analysis Dataset Structure",
                                    "type": "Data Structure"
                                },
                                "parentProduct": {
                                    "href": "/mdr/adam/adamig-1-3",
                                    "title": "Analysis Data Model Implementation Guide Version 1.3",
                                    "type": "Implementation Guide"
                                },
                                "parentVariableSet": {
                                    "href": "/mdr/adam/adamig-1-3/datastructures/ADSL/varsets/SubjectDemographics",
                                    "title": "ADSL Subject Demographics",
                                    "type": "Variable Set"
                                },
                                "priorVersion": {
                                    "href": "/mdr/adam/adamig-1-2/datastructures/ADSL/variables/RACEGRy",
                                    "title": "Pooled Race Group y",
                                    "type": "Analysis Variable"
                                },
                                "self": {
                                    "href": "/mdr/adam/adamig-1-3/datastructures/ADSL/variables/RACEGRy",
                                    "title": "Pooled Race Group y",
                                    "type": "Analysis Variable"
                                }
                            },
                            "core": "Perm",
                            "description": "Character description of a grouping or pooling of the subject's race for analysis purposes.",
                            "label": "Pooled Race Group y",
                            "name": "RACEGRy",
                            "ordinal": "8",
                            "simpleDatatype": "Char"
                        },
                        {
                            "_links": {
                                "parentDatastructure": {
                                    "href": "/mdr/adam/adamig-1-3/datastructures/ADSL",
                                    "title": "Subject-Level Analysis Dataset Structure",
                                    "type": "Data Structure"
                                },
                                "parentProduct": {
                                    "href": "/mdr/adam/adamig-1-3",
                                    "title": "Analysis Data Model Implementation Guide Version 1.3",
                                    "type": "Implementation Guide"
                                },
                                "parentVariableSet": {
                                    "href": "/mdr/adam/adamig-1-3/datastructures/ADSL/varsets/SubjectDemographics",
                                    "title": "ADSL Subject Demographics",
                                    "type": "Variable Set"
                                },
                                "priorVersion": {
                                    "href": "/mdr/adam/adamig-1-2/datastructures/ADSL/variables/RACEGRyN",
                                    "title": "Pooled Race Group y (N)",
                                    "type": "Analysis Variable"
                                },
                                "self": {
                                    "href": "/mdr/adam/adamig-1-3/datastructures/ADSL/variables/RACEGRyN",
                                    "title": "Pooled Race Group y (N)",
                                    "type": "Analysis Variable"
                                }
                            },
                            "core": "Perm",
                            "description": "Numeric representation of RACEGRy. Orders the grouping or pooling of subject race for analysis and reporting. There must be a one-to-one relationship between RACEGRyN and RACEGRy within a study. \\n RACEGRyN cannot be present unless RACEGRy is also present. When RACEGRy and RACEGRyN are present, then on a given record, either both must be populated or both must be null.",
                            "label": "Pooled Race Group y (N)",
                            "name": "RACEGRyN",
                            "ordinal": "9",
                            "simpleDatatype": "Num"
                        }
                    ],
                    "label": "ADSL Subject Demographics",
                    "name": "Subject Demographics",
                    "ordinal": "2"
                },
                {
                    "_links": {
                        "parentDatastructure": {
                            "href": "/mdr/adam/adamig-1-3/datastructures/ADSL",
                            "title": "Subject-Level Analysis Dataset Structure",
                            "type": "Data Structure"
                        },
                        "parentProduct": {
                            "href": "/mdr/adam/adamig-1-3",
                            "title": "Analysis Data Model Implementation Guide Version 1.3",
                            "type": "Implementation Guide"
                        },
                        "priorVersion": {
                            "href": "/mdr/adam/adamig-1-2/datastructures/ADSL/varsets/PopulationIndicator",
                            "title": "ADSL Population Indicator Variables",
                            "type": "Variable Set"
                        },
                        "self": {
                            "href": "/mdr/adam/adamig-1-3/datastructures/ADSL/varsets/PopulationIndicator",
                            "title": "ADSL Population Indicator",
                            "type": "Variable Set"
                        }
                    },
                    "analysisVariables": [
                        {
                            "_links": {
                                "parentDatastructure": {
                                    "href": "/mdr/adam/adamig-1-3/datastructures/ADSL",
                                    "title": "Subject-Level Analysis Dataset Structure",
                                    "type": "Data Structure"
                                },
                                "parentProduct": {
                                    "href": "/mdr/adam/adamig-1-3",
                                    "title": "Analysis Data Model Implementation Guide Version 1.3",
                                    "type": "Implementation Guide"
                                },
                                "parentVariableSet": {
                                    "href": "/mdr/adam/adamig-1-3/datastructures/ADSL/varsets/PopulationIndicator",
                                    "title": "ADSL Population Indicator",
                                    "type": "Variable Set"
                                },
                                "priorVersion": {
                                    "href": "/mdr/adam/adamig-1-2/datastructures/ADSL/variables/FASFL",
                                    "title": "Full Analysis Set Population Flag",
                                    "type": "Analysis Variable"
                                },
                                "self": {
                                    "href": "/mdr/adam/adamig-1-3/datastructures/ADSL/variables/FASFL",
                                    "title": "Full Analysis Set Population Flag",
                                    "type": "Analysis Variable"
                                }
                            },
                            "core": "Cond",
                            "description": "These flags identify whether or not the subject is included in the specified population. A minimum of one subject-level population flag variable is required in ADSL. \\n Not all of the indicators listed here need to be included in ADSL. As stated in Section 3.1.4, Flag Variable Conventions, only those indicators corresponding to populations defined in the statistical analysis plan or populations used as a basis for analysis need be included in ADSL. \\n This list of flags is not meant to be all-inclusive. Additional population flags may be added. \\n The values of subject-level population flags cannot be blank. If a flag is used, the corresponding numeric version (*FN, where 0 = No and 1 = Yes) of the population flag can also be included. Please also refer to Section 3.1.4, Flag Variable Conventions.",
                            "label": "Full Analysis Set Population Flag",
                            "name": "FASFL",
                            "ordinal": "1",
                            "simpleDatatype": "Char",
                            "valueList": [
                                "Y",
                                "N"
                            ]
                        },
                        {
                            "_links": {
                                "parentDatastructure": {
                                    "href": "/mdr/adam/adamig-1-3/datastructures/ADSL",
                                    "title": "Subject-Level Analysis Dataset Structure",
                                    "type": "Data Structure"
                                },
                                "parentProduct": {
                                    "href": "/mdr/adam/adamig-1-3",
                                    "title": "Analysis Data Model Implementation Guide Version 1.3",
                                    "type": "Implementation Guide"
                                },
                                "parentVariableSet": {
                                    "href": "/mdr/adam/adamig-1-3/datastructures/ADSL/varsets/PopulationIndicator",
                                    "title": "ADSL Population Indicator",
                                    "type": "Variable Set"
                                },
                                "priorVersion": {
                                    "href": "/mdr/adam/adamig-1-2/datastructures/ADSL/variables/SAFFL",
                                    "title": "Safety Population Flag",
                                    "type": "Analysis Variable"
                                },
                                "self": {
                                    "href": "/mdr/adam/adamig-1-3/datastructures/ADSL/variables/SAFFL",
                                    "title": "Safety Population Flag",
                                    "type": "Analysis Variable"
                                }
                            },
                            "core": "Cond",
                            "description": "These flags identify whether or not the subject is included in the specified population. A minimum of one subject-level population flag variable is required in ADSL. \\n Not all of the indicators listed here need to be included in ADSL. As stated in Section 3.1.4, Flag Variable Conventions, only those indicators corresponding to populations defined in the statistical analysis plan or populations used as a basis for analysis need be included in ADSL. \\n This list of flags is not meant to be all-inclusive. Additional population flags may be added. \\n The values of subject-level population flags cannot be blank. If a flag is used, the corresponding numeric version (*FN, where 0 = No and 1 = Yes) of the population flag can also be included. Please also refer to Section 3.1.4, Flag Variable Conventions.",
                            "label": "Safety Population Flag",
                            "name": "SAFFL",
                            "ordinal": "2",
                            "simpleDatatype": "Char",
                            "valueList": [
                                "Y",
                                "N"
                            ]
                        },
                        {
                            "_links": {
                                "parentDatastructure": {
                                    "href": "/mdr/adam/adamig-1-3/datastructures/ADSL",
                                    "title": "Subject-Level Analysis Dataset Structure",
                                    "type": "Data Structure"
                                },
                                "parentProduct": {
                                    "href": "/mdr/adam/adamig-1-3",
                                    "title": "Analysis Data Model Implementation Guide Version 1.3",
                                    "type": "Implementation Guide"
                                },
                                "parentVariableSet": {
                                    "href": "/mdr/adam/adamig-1-3/datastructures/ADSL/varsets/PopulationIndicator",
                                    "title": "ADSL Population Indicator",
                                    "type": "Variable Set"
                                },
                                "priorVersion": {
                                    "href": "/mdr/adam/adamig-1-2/datastructures/ADSL/variables/ITTFL",
                                    "title": "Intent-To-Treat Population Flag",
                                    "type": "Analysis Variable"
                                },
                                "self": {
                                    "href": "/mdr/adam/adamig-1-3/datastructures/ADSL/variables/ITTFL",
                                    "title": "Intent-To-Treat Population Flag",
                                    "type": "Analysis Variable"
                                }
                            },
                            "core": "Cond",
                            "description": "These flags identify whether or not the subject is included in the specified population. A minimum of one subject-level population flag variable is required in ADSL. \\n Not all of the indicators listed here need to be included in ADSL. As stated in Section 3.1.4, Flag Variable Conventions, only those indicators corresponding to populations defined in the statistical analysis plan or populations used as a basis for analysis need be included in ADSL. \\n This list of flags is not meant to be all-inclusive. Additional population flags may be added. \\n The values of subject-level population flags cannot be blank. If a flag is used, the corresponding numeric version (*FN, where 0 = No and 1 = Yes) of the population flag can also be included. Please also refer to Section 3.1.4, Flag Variable Conventions.",
                            "label": "Intent-To-Treat Population Flag",
                            "name": "ITTFL",
                            "ordinal": "3",
                            "simpleDatatype": "Char",
                            "valueList": [
                                "Y",
                                "N"
                            ]
                        },
                        {
                            "_links": {
                                "parentDatastructure": {
                                    "href": "/mdr/adam/adamig-1-3/datastructures/ADSL",
                                    "title": "Subject-Level Analysis Dataset Structure",
                                    "type": "Data Structure"
                                },
                                "parentProduct": {
                                    "href": "/mdr/adam/adamig-1-3",
                                    "title": "Analysis Data Model Implementation Guide Version 1.3",
                                    "type": "Implementation Guide"
                                },
                                "parentVariableSet": {
                                    "href": "/mdr/adam/adamig-1-3/datastructures/ADSL/varsets/PopulationIndicator",
                                    "title": "ADSL Population Indicator",
                                    "type": "Variable Set"
                                },
                                "priorVersion": {
                                    "href": "/mdr/adam/adamig-1-2/datastructures/ADSL/variables/PPROTFL",
                                    "title": "Per-Protocol Population Flag",
                                    "type": "Analysis Variable"
                                },
                                "self": {
                                    "href": "/mdr/adam/adamig-1-3/datastructures/ADSL/variables/PPROTFL",
                                    "title": "Per-Protocol Population Flag",
                                    "type": "Analysis Variable"
                                }
                            },
                            "core": "Cond",
                            "description": "These flags identify whether or not the subject is included in the specified population. A minimum of one subject-level population flag variable is required in ADSL. \\n Not all of the indicators listed here need to be included in ADSL. As stated in Section 3.1.4, Flag Variable Conventions, only those indicators corresponding to populations defined in the statistical analysis plan or populations used as a basis for analysis need be included in ADSL. \\n This list of flags is not meant to be all-inclusive. Additional population flags may be added. \\n The values of subject-level population flags cannot be blank. If a flag is used, the corresponding numeric version (*FN, where 0 = No and 1 = Yes) of the population flag can also be included. Please also refer to Section 3.1.4, Flag Variable Conventions.",
                            "label": "Per-Protocol Population Flag",
                            "name": "PPROTFL",
                            "ordinal": "4",
                            "simpleDatatype": "Char",
                            "valueList": [
                                "Y",
                                "N"
                            ]
                        },
                        {
                            "_links": {
                                "parentDatastructure": {
                                    "href": "/mdr/adam/adamig-1-3/datastructures/ADSL",
                                    "title": "Subject-Level Analysis Dataset Structure",
                                    "type": "Data Structure"
                                },
                                "parentProduct": {
                                    "href": "/mdr/adam/adamig-1-3",
                                    "title": "Analysis Data Model Implementation Guide Version 1.3",
                                    "type": "Implementation Guide"
                                },
                                "parentVariableSet": {
                                    "href": "/mdr/adam/adamig-1-3/datastructures/ADSL/varsets/PopulationIndicator",
                                    "title": "ADSL Population Indicator",
                                    "type": "Variable Set"
                                },
                                "priorVersion": {
                                    "href": "/mdr/adam/adamig-1-2/datastructures/ADSL/variables/COMPLFL",
                                    "title": "Completers Population Flag",
                                    "type": "Analysis Variable"
                                },
                                "self": {
                                    "href": "/mdr/adam/adamig-1-3/datastructures/ADSL/variables/COMPLFL",
                                    "title": "Completers Population Flag",
                                    "type": "Analysis Variable"
                                }
                            },
                            "core": "Cond",
                            "description": "These flags identify whether or not the subject is included in the specified population. A minimum of one subject-level population flag variable is required in ADSL. \\n Not all of the indicators listed here need to be included in ADSL. As stated in Section 3.1.4, Flag Variable Conventions, only those indicators corresponding to populations defined in the statistical analysis plan or populations used as a basis for analysis need be included in ADSL. \\n This list of flags is not meant to be all-inclusive. Additional population flags may be added. \\n The values of subject-level population flags cannot be blank. If a flag is used, the corresponding numeric version (*FN, where 0 = No and 1 = Yes) of the population flag can also be included. Please also refer to Section 3.1.4, Flag Variable Conventions.",
                            "label": "Completers Population Flag",
                            "name": "COMPLFL",
                            "ordinal": "5",
                            "simpleDatatype": "Char",
                            "valueList": [
                                "Y",
                                "N"
                            ]
                        },
                        {
                            "_links": {
                                "parentDatastructure": {
                                    "href": "/mdr/adam/adamig-1-3/datastructures/ADSL",
                                    "title": "Subject-Level Analysis Dataset Structure",
                                    "type": "Data Structure"
                                },
                                "parentProduct": {
                                    "href": "/mdr/adam/adamig-1-3",
                                    "title": "Analysis Data Model Implementation Guide Version 1.3",
                                    "type": "Implementation Guide"
                                },
                                "parentVariableSet": {
                                    "href": "/mdr/adam/adamig-1-3/datastructures/ADSL/varsets/PopulationIndicator",
                                    "title": "ADSL Population Indicator",
                                    "type": "Variable Set"
                                },
                                "priorVersion": {
                                    "href": "/mdr/adam/adamig-1-2/datastructures/ADSL/variables/RANDFL",
                                    "title": "Randomized Population Flag",
                                    "type": "Analysis Variable"
                                },
                                "self": {
                                    "href": "/mdr/adam/adamig-1-3/datastructures/ADSL/variables/RANDFL",
                                    "title": "Randomized Population Flag",
                                    "type": "Analysis Variable"
                                }
                            },
                            "core": "Cond",
                            "description": "These flags identify whether or not the subject is included in the specified population. A minimum of one subject-level population flag variable is required in ADSL. \\n Not all of the indicators listed here need to be included in ADSL. As stated in Section 3.1.4, Flag Variable Conventions, only those indicators corresponding to populations defined in the statistical analysis plan or populations used as a basis for analysis need be included in ADSL. \\n This list of flags is not meant to be all-inclusive. Additional population flags may be added. \\n The values of subject-level population flags cannot be blank. If a flag is used, the corresponding numeric version (*FN, where 0 = No and 1 = Yes) of the population flag can also be included. Please also refer to Section 3.1.4, Flag Variable Conventions.",
                            "label": "Randomized Population Flag",
                            "name": "RANDFL",
                            "ordinal": "6",
                            "simpleDatatype": "Char",
                            "valueList": [
                                "Y",
                                "N"
                            ]
                        },
                        {
                            "_links": {
                                "parentDatastructure": {
                                    "href": "/mdr/adam/adamig-1-3/datastructures/ADSL",
                                    "title": "Subject-Level Analysis Dataset Structure",
                                    "type": "Data Structure"
                                },
                                "parentProduct": {
                                    "href": "/mdr/adam/adamig-1-3",
                                    "title": "Analysis Data Model Implementation Guide Version 1.3",
                                    "type": "Implementation Guide"
                                },
                                "parentVariableSet": {
                                    "href": "/mdr/adam/adamig-1-3/datastructures/ADSL/varsets/PopulationIndicator",
                                    "title": "ADSL Population Indicator",
                                    "type": "Variable Set"
                                },
                                "priorVersion": {
                                    "href": "/mdr/adam/adamig-1-2/datastructures/ADSL/variables/ENRLFL",
                                    "title": "Enrolled Population Flag",
                                    "type": "Analysis Variable"
                                },
                                "self": {
                                    "href": "/mdr/adam/adamig-1-3/datastructures/ADSL/variables/ENRLFL",
                                    "title": "Enrolled Population Flag",
                                    "type": "Analysis Variable"
                                }
                            },
                            "core": "Cond",
                            "description": "These flags identify whether or not the subject is included in the specified population. A minimum of one subject-level population flag variable is required in ADSL. \\n Not all of the indicators listed here need to be included in ADSL. As stated in Section 3.1.4, Flag Variable Conventions, only those indicators corresponding to populations defined in the statistical analysis plan or populations used as a basis for analysis need be included in ADSL. \\n This list of flags is not meant to be all-inclusive. Additional population flags may be added. \\n The values of subject-level population flags cannot be blank. If a flag is used, the corresponding numeric version (*FN, where 0 = No and 1 = Yes) of the population flag can also be included. Please also refer to Section 3.1.4, Flag Variable Conventions.",
                            "label": "Enrolled Population Flag",
                            "name": "ENRLFL",
                            "ordinal": "7",
                            "simpleDatatype": "Char",
                            "valueList": [
                                "Y",
                                "N"
                            ]
                        }
                    ],
                    "label": "ADSL Population Indicator",
                    "name": "Population Indicator",
                    "ordinal": "3"
                },
                {
                    "_links": {
                        "parentDatastructure": {
                            "href": "/mdr/adam/adamig-1-3/datastructures/ADSL",
                            "title": "Subject-Level Analysis Dataset Structure",
                            "type": "Data Structure"
                        },
                        "parentProduct": {
                            "href": "/mdr/adam/adamig-1-3",
                            "title": "Analysis Data Model Implementation Guide Version 1.3",
                            "type": "Implementation Guide"
                        },
                        "priorVersion": {
                            "href": "/mdr/adam/adamig-1-2/datastructures/ADSL/varsets/Treatment",
                            "title": "ADSL Treatment Variables",
                            "type": "Variable Set"
                        },
                        "self": {
                            "href": "/mdr/adam/adamig-1-3/datastructures/ADSL/varsets/Treatment",
                            "title": "ADSL Treatment",
                            "type": "Variable Set"
                        }
                    },
                    "analysisVariables": [
                        {
                            "_links": {
                                "parentDatastructure": {
                                    "href": "/mdr/adam/adamig-1-3/datastructures/ADSL",
                                    "title": "Subject-Level Analysis Dataset Structure",
                                    "type": "Data Structure"
                                },
                                "parentProduct": {
                                    "href": "/mdr/adam/adamig-1-3",
                                    "title": "Analysis Data Model Implementation Guide Version 1.3",
                                    "type": "Implementation Guide"
                                },
                                "parentVariableSet": {
                                    "href": "/mdr/adam/adamig-1-3/datastructures/ADSL/varsets/Treatment",
                                    "title": "ADSL Treatment",
                                    "type": "Variable Set"
                                },
                                "priorVersion": {
                                    "href": "/mdr/adam/adamig-1-2/datastructures/ADSL/variables/ARM",
                                    "title": "Description of Planned Arm",
                                    "type": "Analysis Variable"
                                },
                                "self": {
                                    "href": "/mdr/adam/adamig-1-3/datastructures/ADSL/variables/ARM",
                                    "title": "Description of Planned Arm",
                                    "type": "Analysis Variable"
                                }
                            },
                            "core": "Req",
                            "description": "DM.ARM",
                            "label": "Description of Planned Arm",
                            "name": "ARM",
                            "ordinal": "1",
                            "simpleDatatype": "Char"
                        },
                        {
                            "_links": {
                                "parentDatastructure": {
                                    "href": "/mdr/adam/adamig-1-3/datastructures/ADSL",
                                    "title": "Subject-Level Analysis Dataset Structure",
                                    "type": "Data Structure"
                                },
                                "parentProduct": {
                                    "href": "/mdr/adam/adamig-1-3",
                                    "title": "Analysis Data Model Implementation Guide Version 1.3",
                                    "type": "Implementation Guide"
                                },
                                "parentVariableSet": {
                                    "href": "/mdr/adam/adamig-1-3/datastructures/ADSL/varsets/Treatment",
                                    "title": "ADSL Treatment",
                                    "type": "Variable Set"
                                },
                                "priorVersion": {
                                    "href": "/mdr/adam/adamig-1-2/datastructures/ADSL/variables/ACTARM",
                                    "title": "Description of Actual Arm",
                                    "type": "Analysis Variable"
                                },
                                "self": {
                                    "href": "/mdr/adam/adamig-1-3/datastructures/ADSL/variables/ACTARM",
                                    "title": "Description of Actual Arm",
                                    "type": "Analysis Variable"
                                }
                            },
                            "core": "Perm",
                            "description": "DM.ACTARM",
                            "label": "Description of Actual Arm",
                            "name": "ACTARM",
                            "ordinal": "2",
                            "simpleDatatype": "Char"
                        },
                        {
                            "_links": {
                                "parentDatastructure": {
                                    "href": "/mdr/adam/adamig-1-3/datastructures/ADSL",
                                    "title": "Subject-Level Analysis Dataset Structure",
                                    "type": "Data Structure"
                                },
                                "parentProduct": {
                                    "href": "/mdr/adam/adamig-1-3",
                                    "title": "Analysis Data Model Implementation Guide Version 1.3",
                                    "type": "Implementation Guide"
                                },
                                "parentVariableSet": {
                                    "href": "/mdr/adam/adamig-1-3/datastructures/ADSL/varsets/Treatment",
                                    "title": "ADSL Treatment",
                                    "type": "Variable Set"
                                },
                                "priorVersion": {
                                    "href": "/mdr/adam/adamig-1-2/datastructures/ADSL/variables/TRTxxP",
                                    "title": "Planned Treatment for Period xx",
                                    "type": "Analysis Variable"
                                },
                                "self": {
                                    "href": "/mdr/adam/adamig-1-3/datastructures/ADSL/variables/TRTxxP",
                                    "title": "Planned Treatment for Period xx",
                                    "type": "Analysis Variable"
                                }
                            },
                            "core": "Req",
                            "description": "Subject-level identifier that represents the planned treatment for period xx. In a one-period randomized trial, TRT01P would be the treatment to which the subject was randomized. TRTxxP might be derived from the SDTM DM variable ARM. At least TRT01P is required.",
                            "label": "Planned Treatment for Period xx",
                            "name": "TRTxxP",
                            "ordinal": "3",
                            "simpleDatatype": "Char"
                        },
                        {
                            "_links": {
                                "parentDatastructure": {
                                    "href": "/mdr/adam/adamig-1-3/datastructures/ADSL",
                                    "title": "Subject-Level Analysis Dataset Structure",
                                    "type": "Data Structure"
                                },
                                "parentProduct": {
                                    "href": "/mdr/adam/adamig-1-3",
                                    "title": "Analysis Data Model Implementation Guide Version 1.3",
                                    "type": "Implementation Guide"
                                },
                                "parentVariableSet": {
                                    "href": "/mdr/adam/adamig-1-3/datastructures/ADSL/varsets/Treatment",
                                    "title": "ADSL Treatment",
                                    "type": "Variable Set"
                                },
                                "priorVersion": {
                                    "href": "/mdr/adam/adamig-1-2/datastructures/ADSL/variables/TRTxxPN",
                                    "title": "Planned Treatment for Period xx (N)",
                                    "type": "Analysis Variable"
                                },
                                "self": {
                                    "href": "/mdr/adam/adamig-1-3/datastructures/ADSL/variables/TRTxxPN",
                                    "title": "Planned Treatment for Period xx (N)",
                                    "type": "Analysis Variable"
                                }
                            },
                            "core": "Perm",
                            "description": "Numeric representation of TRTxxP. There must be a one-to-one relationship between TRTxxPN and TRTxxP within a study. \\n TRTxxPN cannot be present unless TRTxxP is also present. When TRTxxP and TRTxxPN are present, then on a given record, either both must be populated or both must be null.",
                            "label": "Planned Treatment for Period xx (N)",
                            "name": "TRTxxPN",
                            "ordinal": "4",
                            "simpleDatatype": "Num"
                        },
                        {
                            "_links": {
                                "parentDatastructure": {
                                    "href": "/mdr/adam/adamig-1-3/datastructures/ADSL",
                                    "title": "Subject-Level Analysis Dataset Structure",
                                    "type": "Data Structure"
                                },
                                "parentProduct": {
                                    "href": "/mdr/adam/adamig-1-3",
                                    "title": "Analysis Data Model Implementation Guide Version 1.3",
                                    "type": "Implementation Guide"
                                },
                                "parentVariableSet": {
                                    "href": "/mdr/adam/adamig-1-3/datastructures/ADSL/varsets/Treatment",
                                    "title": "ADSL Treatment",
                                    "type": "Variable Set"
                                },
                                "priorVersion": {
                                    "href": "/mdr/adam/adamig-1-2/datastructures/ADSL/variables/TRTxxA",
                                    "title": "Actual Treatment for Period xx",
                                    "type": "Analysis Variable"
                                },
                                "self": {
                                    "href": "/mdr/adam/adamig-1-3/datastructures/ADSL/variables/TRTxxA",
                                    "title": "Actual Treatment for Period xx",
                                    "type": "Analysis Variable"
                                }
                            },
                            "core": "Cond",
                            "description": "Subject-level identifier that represents the actual treatment for the subject for period xx. Required when actual treatment does not match planned and there is an analysis of the data as treated.",
                            "label": "Actual Treatment for Period xx",
                            "name": "TRTxxA",
                            "ordinal": "5",
                            "simpleDatatype": "Char"
                        },
                        {
                            "_links": {
                                "parentDatastructure": {
                                    "href": "/mdr/adam/adamig-1-3/datastructures/ADSL",
                                    "title": "Subject-Level Analysis Dataset Structure",
                                    "type": "Data Structure"
                                },
                                "parentProduct": {
                                    "href": "/mdr/adam/adamig-1-3",
                                    "title": "Analysis Data Model Implementation Guide Version 1.3",
                                    "type": "Implementation Guide"
                                },
                                "parentVariableSet": {
                                    "href": "/mdr/adam/adamig-1-3/datastructures/ADSL/varsets/Treatment",
                                    "title": "ADSL Treatment",
                                    "type": "Variable Set"
                                },
                                "priorVersion": {
                                    "href": "/mdr/adam/adamig-1-2/datastructures/ADSL/variables/TRTxxAN",
                                    "title": "Actual Treatment for Period xx (N)",
                                    "type": "Analysis Variable"
                                },
                                "self": {
                                    "href": "/mdr/adam/adamig-1-3/datastructures/ADSL/variables/TRTxxAN",
                                    "title": "Actual Treatment for Period xx (N)",
                                    "type": "Analysis Variable"
                                }
                            },
                            "core": "Perm",
                            "description": "Numeric representation of TRTxxA. There must be a one-to-one relationship between TRTxxAN and TRTxxA within a study. \\n TRTxxAN cannot be present unless TRTxxA is also present. When TRTxxA and TRTxxAN are present, then on a given record, either both must be populated or both must be null.",
                            "label": "Actual Treatment for Period xx (N)",
                            "name": "TRTxxAN",
                            "ordinal": "6",
                            "simpleDatatype": "Num"
                        },
                        {
                            "_links": {
                                "parentDatastructure": {
                                    "href": "/mdr/adam/adamig-1-3/datastructures/ADSL",
                                    "title": "Subject-Level Analysis Dataset Structure",
                                    "type": "Data Structure"
                                },
                                "parentProduct": {
                                    "href": "/mdr/adam/adamig-1-3",
                                    "title": "Analysis Data Model Implementation Guide Version 1.3",
                                    "type": "Implementation Guide"
                                },
                                "parentVariableSet": {
                                    "href": "/mdr/adam/adamig-1-3/datastructures/ADSL/varsets/Treatment",
                                    "title": "ADSL Treatment",
                                    "type": "Variable Set"
                                },
                                "priorVersion": {
                                    "href": "/mdr/adam/adamig-1-2/datastructures/ADSL/variables/TRTSEQP",
                                    "title": "Planned Sequence of Treatments",
                                    "type": "Analysis Variable"
                                },
                                "self": {
                                    "href": "/mdr/adam/adamig-1-3/datastructures/ADSL/variables/TRTSEQP",
                                    "title": "Planned Sequence of Treatments",
                                    "type": "Analysis Variable"
                                }
                            },
                            "core": "Cond",
                            "description": "Required when there is an analysis based on the sequence of treatments, for example in a crossover design. TRTSEQP is not necessarily equal to ARM, for example if ARM contains elements that are not relevant to analysis of treatments or ARM is not fully descriptive (e.g., \"GROUP 1,\" \"GROUP 2\"). When analyzing based on the sequence of treatments, TRTSEQP is required even if identical to ARM.",
                            "label": "Planned Sequence of Treatments",
                            "name": "TRTSEQP",
                            "ordinal": "7",
                            "simpleDatatype": "Char"
                        },
                        {
                            "_links": {
                                "parentDatastructure": {
                                    "href": "/mdr/adam/adamig-1-3/datastructures/ADSL",
                                    "title": "Subject-Level Analysis Dataset Structure",
                                    "type": "Data Structure"
                                },
                                "parentProduct": {
                                    "href": "/mdr/adam/adamig-1-3",
                                    "title": "Analysis Data Model Implementation Guide Version 1.3",
                                    "type": "Implementation Guide"
                                },
                                "parentVariableSet": {
                                    "href": "/mdr/adam/adamig-1-3/datastructures/ADSL/varsets/Treatment",
                                    "title": "ADSL Treatment",
                                    "type": "Variable Set"
                                },
                                "priorVersion": {
                                    "href": "/mdr/adam/adamig-1-2/datastructures/ADSL/variables/TRTSEQPN",
                                    "title": "Planned Sequence of Treatments (N)",
                                    "type": "Analysis Variable"
                                },
                                "self": {
                                    "href": "/mdr/adam/adamig-1-3/datastructures/ADSL/variables/TRTSEQPN",
                                    "title": "Planned Sequence of Treatments (N)",
                                    "type": "Analysis Variable"
                                }
                            },
                            "core": "Perm",
                            "description": "Numeric representation of TRTSEQP. There must be a one-to-one relationship between TRTSEQPN and TRTSEQP within a study. \\n TRTSEQPN cannot be present unless TRTSEQP is also present. When TRTSEQP and TRTSEQPN are present, then on a given record, either both must be populated or both must be null.",
                            "label": "Planned Sequence of Treatments (N)",
                            "name": "TRTSEQPN",
                            "ordinal": "8",
                            "simpleDatatype": "Num"
                        },
                        {
                            "_links": {
                                "parentDatastructure": {
                                    "href": "/mdr/adam/adamig-1-3/datastructures/ADSL",
                                    "title": "Subject-Level Analysis Dataset Structure",
                                    "type": "Data Structure"
                                },
                                "parentProduct": {
                                    "href": "/mdr/adam/adamig-1-3",
                                    "title": "Analysis Data Model Implementation Guide Version 1.3",
                                    "type": "Implementation Guide"
                                },
                                "parentVariableSet": {
                                    "href": "/mdr/adam/adamig-1-3/datastructures/ADSL/varsets/Treatment",
                                    "title": "ADSL Treatment",
                                    "type": "Variable Set"
                                },
                                "priorVersion": {
                                    "href": "/mdr/adam/adamig-1-2/datastructures/ADSL/variables/TRTSEQA",
                                    "title": "Actual Sequence of Treatments",
                                    "type": "Analysis Variable"
                                },
                                "self": {
                                    "href": "/mdr/adam/adamig-1-3/datastructures/ADSL/variables/TRTSEQA",
                                    "title": "Actual Sequence of Treatments",
                                    "type": "Analysis Variable"
                                }
                            },
                            "core": "Cond",
                            "description": "TRTSEQA is required if a situation occurred in the conduct of the trial where a subject received a sequence of treatments other than what was planned and there is an analysis based on the sequence of treatments.",
                            "label": "Actual Sequence of Treatments",
                            "name": "TRTSEQA",
                            "ordinal": "9",
                            "simpleDatatype": "Char"
                        },
                        {
                            "_links": {
                                "parentDatastructure": {
                                    "href": "/mdr/adam/adamig-1-3/datastructures/ADSL",
                                    "title": "Subject-Level Analysis Dataset Structure",
                                    "type": "Data Structure"
                                },
                                "parentProduct": {
                                    "href": "/mdr/adam/adamig-1-3",
                                    "title": "Analysis Data Model Implementation Guide Version 1.3",
                                    "type": "Implementation Guide"
                                },
                                "parentVariableSet": {
                                    "href": "/mdr/adam/adamig-1-3/datastructures/ADSL/varsets/Treatment",
                                    "title": "ADSL Treatment",
                                    "type": "Variable Set"
                                },
                                "priorVersion": {
                                    "href": "/mdr/adam/adamig-1-2/datastructures/ADSL/variables/TRTSEQAN",
                                    "title": "Actual Sequence of Treatments (N)",
                                    "type": "Analysis Variable"
                                },
                                "self": {
                                    "href": "/mdr/adam/adamig-1-3/datastructures/ADSL/variables/TRTSEQAN",
                                    "title": "Actual Sequence of Treatments (N)",
                                    "type": "Analysis Variable"
                                }
                            },
                            "core": "Perm",
                            "description": "Numeric representation of TRTSEQA. There must be a one-to-one relationship between TRTSEQAN and TRTSEQA within a study. \\n TRTSEQAN cannot be present unless TRTSEQA is also present. When TRTSEQA and TRTSEQAN are present, then on a given record, either both must be populated or both must be null.",
                            "label": "Actual Sequence of Treatments (N)",
                            "name": "TRTSEQAN",
                            "ordinal": "10",
                            "simpleDatatype": "Num"
                        },
                        {
                            "_links": {
                                "parentDatastructure": {
                                    "href": "/mdr/adam/adamig-1-3/datastructures/ADSL",
                                    "title": "Subject-Level Analysis Dataset Structure",
                                    "type": "Data Structure"
                                },
                                "parentProduct": {
                                    "href": "/mdr/adam/adamig-1-3",
                                    "title": "Analysis Data Model Implementation Guide Version 1.3",
                                    "type": "Implementation Guide"
                                },
                                "parentVariableSet": {
                                    "href": "/mdr/adam/adamig-1-3/datastructures/ADSL/varsets/Treatment",
                                    "title": "ADSL Treatment",
                                    "type": "Variable Set"
                                },
                                "priorVersion": {
                                    "href": "/mdr/adam/adamig-1-2/datastructures/ADSL/variables/TRxxPGy",
                                    "title": "Planned Pooled Treatment y for Period xx",
                                    "type": "Analysis Variable"
                                },
                                "self": {
                                    "href": "/mdr/adam/adamig-1-3/datastructures/ADSL/variables/TRxxPGy",
                                    "title": "Planned Pooled Treatment y for Period xx",
                                    "type": "Analysis Variable"
                                }
                            },
                            "core": "Perm",
                            "description": "Planned pooled treatment y for period xx. Useful when planned treatments (TRTxxP) in the specified period xx are pooled together for analysis according to pooling algorithm y. For example when in period 2 the first pooling algorithm dictates that all doses of Drug A (TR02PG1=\"All doses of Drug A\") are pooled together for comparison to all doses of Drug B (TR02PG1=\"All doses of Drug B\"). Each value of TRTxxP is pooled within at most one value of TRxxPGy.",
                            "label": "Planned Pooled Treatment y for Period xx",
                            "name": "TRxxPGy",
                            "ordinal": "11",
                            "simpleDatatype": "Char"
                        },
                        {
                            "_links": {
                                "parentDatastructure": {
                                    "href": "/mdr/adam/adamig-1-3/datastructures/ADSL",
                                    "title": "Subject-Level Analysis Dataset Structure",
                                    "type": "Data Structure"
                                },
                                "parentProduct": {
                                    "href": "/mdr/adam/adamig-1-3",
                                    "title": "Analysis Data Model Implementation Guide Version 1.3",
                                    "type": "Implementation Guide"
                                },
                                "parentVariableSet": {
                                    "href": "/mdr/adam/adamig-1-3/datastructures/ADSL/varsets/Treatment",
                                    "title": "ADSL Treatment",
                                    "type": "Variable Set"
                                },
                                "priorVersion": {
                                    "href": "/mdr/adam/adamig-1-2/datastructures/ADSL/variables/TRxxPGyN",
                                    "title": "Planned Pooled Trt y for Period xx (N)",
                                    "type": "Analysis Variable"
                                },
                                "self": {
                                    "href": "/mdr/adam/adamig-1-3/datastructures/ADSL/variables/TRxxPGyN",
                                    "title": "Planned Pooled Trt y for Period xx (N)",
                                    "type": "Analysis Variable"
                                }
                            },
                            "core": "Perm",
                            "description": "Numeric representation of TRxxPGy. There must be a one-to-one relationship between TRxxPGyN and TRxxPGy within a study. \\n TRxxPGyN cannot be present unless TRxxPGy is also present. When TRxxPGy and TRxxPGyN are present, then on a given record, either both must be populated or both must be null.",
                            "label": "Planned Pooled Trt y for Period xx (N)",
                            "name": "TRxxPGyN",
                            "ordinal": "12",
                            "simpleDatatype": "Num"
                        },
                        {
                            "_links": {
                                "parentDatastructure": {
                                    "href": "/mdr/adam/adamig-1-3/datastructures/ADSL",
                                    "title": "Subject-Level Analysis Dataset Structure",
                                    "type": "Data Structure"
                                },
                                "parentProduct": {
                                    "href": "/mdr/adam/adamig-1-3",
                                    "title": "Analysis Data Model Implementation Guide Version 1.3",
                                    "type": "Implementation Guide"
                                },
                                "parentVariableSet": {
                                    "href": "/mdr/adam/adamig-1-3/datastructures/ADSL/varsets/Treatment",
                                    "title": "ADSL Treatment",
                                    "type": "Variable Set"
                                },
                                "priorVersion": {
                                    "href": "/mdr/adam/adamig-1-2/datastructures/ADSL/variables/TRxxAGy",
                                    "title": "Actual Pooled Treatment y for Period xx",
                                    "type": "Analysis Variable"
                                },
                                "self": {
                                    "href": "/mdr/adam/adamig-1-3/datastructures/ADSL/variables/TRxxAGy",
                                    "title": "Actual Pooled Treatment y for Period xx",
                                    "type": "Analysis Variable"
                                }
                            },
                            "core": "Cond",
                            "description": "Actual pooled treatment y for period xx. Required when TRxxPGy is present and TRTxxA is present.",
                            "label": "Actual Pooled Treatment y for Period xx",
                            "name": "TRxxAGy",
                            "ordinal": "13",
                            "simpleDatatype": "Char"
                        },
                        {
                            "_links": {
                                "parentDatastructure": {
                                    "href": "/mdr/adam/adamig-1-3/datastructures/ADSL",
                                    "title": "Subject-Level Analysis Dataset Structure",
                                    "type": "Data Structure"
                                },
                                "parentProduct": {
                                    "href": "/mdr/adam/adamig-1-3",
                                    "title": "Analysis Data Model Implementation Guide Version 1.3",
                                    "type": "Implementation Guide"
                                },
                                "parentVariableSet": {
                                    "href": "/mdr/adam/adamig-1-3/datastructures/ADSL/varsets/Treatment",
                                    "title": "ADSL Treatment",
                                    "type": "Variable Set"
                                },
                                "priorVersion": {
                                    "href": "/mdr/adam/adamig-1-2/datastructures/ADSL/variables/TRxxAGyN",
                                    "title": "Actual Pooled Trt y for Period xx (N)",
                                    "type": "Analysis Variable"
                                },
                                "self": {
                                    "href": "/mdr/adam/adamig-1-3/datastructures/ADSL/variables/TRxxAGyN",
                                    "title": "Actual Pooled Trt y for Period xx (N)",
                                    "type": "Analysis Variable"
                                }
                            },
                            "core": "Perm",
                            "description": "Numeric representation of TRxxAGy. There must be a one-to-one relationship between TRxxAGyN and TRxxAGy within a study. \\n TRxxAGyN cannot be present unless TRxxAGy is also present. When TRxxAGy and TRxxAGyN are present, then on a given record, either both must be populated or both must be null.",
                            "label": "Actual Pooled Trt y for Period xx (N)",
                            "name": "TRxxAGyN",
                            "ordinal": "14",
                            "simpleDatatype": "Num"
                        },
                        {
                            "_links": {
                                "parentDatastructure": {
                                    "href": "/mdr/adam/adamig-1-3/datastructures/ADSL",
                                    "title": "Subject-Level Analysis Dataset Structure",
                                    "type": "Data Structure"
                                },
                                "parentProduct": {
                                    "href": "/mdr/adam/adamig-1-3",
                                    "title": "Analysis Data Model Implementation Guide Version 1.3",
                                    "type": "Implementation Guide"
                                },
                                "parentVariableSet": {
                                    "href": "/mdr/adam/adamig-1-3/datastructures/ADSL/varsets/Treatment",
                                    "title": "ADSL Treatment",
                                    "type": "Variable Set"
                                },
                                "priorVersion": {
                                    "href": "/mdr/adam/adamig-1-2/datastructures/ADSL/variables/TSEQPGy",
                                    "title": "Planned Pooled Treatment Sequence y",
                                    "type": "Analysis Variable"
                                },
                                "self": {
                                    "href": "/mdr/adam/adamig-1-3/datastructures/ADSL/variables/TSEQPGy",
                                    "title": "Planned Pooled Treatment Sequence y",
                                    "type": "Analysis Variable"
                                }
                            },
                            "core": "Perm",
                            "description": "Planned pooled treatment sequence y. Useful when planned treatment sequences (TRTSEQP) are pooled together for analysis according to pooling algorithm y. For example, this might be used in an analysis of an extension study when the analysis is based on what the subject received in the parent study as well as in the extension study.",
                            "label": "Planned Pooled Treatment Sequence y",
                            "name": "TSEQPGy",
                            "ordinal": "15",
                            "simpleDatatype": "Char"
                        },
                        {
                            "_links": {
                                "parentDatastructure": {
                                    "href": "/mdr/adam/adamig-1-3/datastructures/ADSL",
                                    "title": "Subject-Level Analysis Dataset Structure",
                                    "type": "Data Structure"
                                },
                                "parentProduct": {
                                    "href": "/mdr/adam/adamig-1-3",
                                    "title": "Analysis Data Model Implementation Guide Version 1.3",
                                    "type": "Implementation Guide"
                                },
                                "parentVariableSet": {
                                    "href": "/mdr/adam/adamig-1-3/datastructures/ADSL/varsets/Treatment",
                                    "title": "ADSL Treatment",
                                    "type": "Variable Set"
                                },
                                "priorVersion": {
                                    "href": "/mdr/adam/adamig-1-2/datastructures/ADSL/variables/TSEQPGyN",
                                    "title": "Planned Pooled Treatment Sequence y (N)",
                                    "type": "Analysis Variable"
                                },
                                "self": {
                                    "href": "/mdr/adam/adamig-1-3/datastructures/ADSL/variables/TSEQPGyN",
                                    "title": "Planned Pooled Treatment Sequence y (N)",
                                    "type": "Analysis Variable"
                                }
                            },
                            "core": "Perm",
                            "description": "Numeric representation of TSEQPGy. There must be a one-to-one relationship between TSEQPGyN and TSEQPGy within a study. \\n TSEQPGyN cannot be present unless TSEQPGy is also present. When TSEQPGy and TSEQPGyN are present, then on a given record, either both must be populated or both must be null.",
                            "label": "Planned Pooled Treatment Sequence y (N)",
                            "name": "TSEQPGyN",
                            "ordinal": "16",
                            "simpleDatatype": "Num"
                        },
                        {
                            "_links": {
                                "parentDatastructure": {
                                    "href": "/mdr/adam/adamig-1-3/datastructures/ADSL",
                                    "title": "Subject-Level Analysis Dataset Structure",
                                    "type": "Data Structure"
                                },
                                "parentProduct": {
                                    "href": "/mdr/adam/adamig-1-3",
                                    "title": "Analysis Data Model Implementation Guide Version 1.3",
                                    "type": "Implementation Guide"
                                },
                                "parentVariableSet": {
                                    "href": "/mdr/adam/adamig-1-3/datastructures/ADSL/varsets/Treatment",
                                    "title": "ADSL Treatment",
                                    "type": "Variable Set"
                                },
                                "priorVersion": {
                                    "href": "/mdr/adam/adamig-1-2/datastructures/ADSL/variables/TSEQAGy",
                                    "title": "Actual Pooled Treatment Sequence y",
                                    "type": "Analysis Variable"
                                },
                                "self": {
                                    "href": "/mdr/adam/adamig-1-3/datastructures/ADSL/variables/TSEQAGy",
                                    "title": "Actual Pooled Treatment Sequence y",
                                    "type": "Analysis Variable"
                                }
                            },
                            "core": "Cond",
                            "description": "Actual pooled treatment sequence y. Required when TSEQPGy is present and TRTSEQA is present.",
                            "label": "Actual Pooled Treatment Sequence y",
                            "name": "TSEQAGy",
                            "ordinal": "17",
                            "simpleDatatype": "Char"
                        },
                        {
                            "_links": {
                                "parentDatastructure": {
                                    "href": "/mdr/adam/adamig-1-3/datastructures/ADSL",
                                    "title": "Subject-Level Analysis Dataset Structure",
                                    "type": "Data Structure"
                                },
                                "parentProduct": {
                                    "href": "/mdr/adam/adamig-1-3",
                                    "title": "Analysis Data Model Implementation Guide Version 1.3",
                                    "type": "Implementation Guide"
                                },
                                "parentVariableSet": {
                                    "href": "/mdr/adam/adamig-1-3/datastructures/ADSL/varsets/Treatment",
                                    "title": "ADSL Treatment",
                                    "type": "Variable Set"
                                },
                                "priorVersion": {
                                    "href": "/mdr/adam/adamig-1-2/datastructures/ADSL/variables/TSEQAGyN",
                                    "title": "Actual Pooled Treatment Sequence y (N)",
                                    "type": "Analysis Variable"
                                },
                                "self": {
                                    "href": "/mdr/adam/adamig-1-3/datastructures/ADSL/variables/TSEQAGyN",
                                    "title": "Actual Pooled Treatment Sequence y (N)",
                                    "type": "Analysis Variable"
                                }
                            },
                            "core": "Perm",
                            "description": "Numeric representation of TSEQAGy. There must be a one-to-one relationship between TSEQAGyN and TSEQAGy within a study. \\n TSEQAGyN cannot be present unless TSEQAGy is also present. When TSEQAGy and TSEQAGyN are present, then on a given record, either both must be populated or both must be null.",
                            "label": "Actual Pooled Treatment Sequence y (N)",
                            "name": "TSEQAGyN",
                            "ordinal": "18",
                            "simpleDatatype": "Num"
                        }
                    ],
                    "label": "ADSL Treatment",
                    "name": "Treatment",
                    "ordinal": "4"
                },
                {
                    "_links": {
                        "parentDatastructure": {
                            "href": "/mdr/adam/adamig-1-3/datastructures/ADSL",
                            "title": "Subject-Level Analysis Dataset Structure",
                            "type": "Data Structure"
                        },
                        "parentProduct": {
                            "href": "/mdr/adam/adamig-1-3",
                            "title": "Analysis Data Model Implementation Guide Version 1.3",
                            "type": "Implementation Guide"
                        },
                        "priorVersion": {
                            "href": "/mdr/adam/adamig-1-2/datastructures/ADSL/varsets/Dose",
                            "title": "ADSL Dose Variables",
                            "type": "Variable Set"
                        },
                        "self": {
                            "href": "/mdr/adam/adamig-1-3/datastructures/ADSL/varsets/Dose",
                            "title": "ADSL Dose",
                            "type": "Variable Set"
                        }
                    },
                    "analysisVariables": [
                        {
                            "_links": {
                                "parentDatastructure": {
                                    "href": "/mdr/adam/adamig-1-3/datastructures/ADSL",
                                    "title": "Subject-Level Analysis Dataset Structure",
                                    "type": "Data Structure"
                                },
                                "parentProduct": {
                                    "href": "/mdr/adam/adamig-1-3",
                                    "title": "Analysis Data Model Implementation Guide Version 1.3",
                                    "type": "Implementation Guide"
                                },
                                "parentVariableSet": {
                                    "href": "/mdr/adam/adamig-1-3/datastructures/ADSL/varsets/Dose",
                                    "title": "ADSL Dose",
                                    "type": "Variable Set"
                                },
                                "priorVersion": {
                                    "href": "/mdr/adam/adamig-1-2/datastructures/ADSL/variables/DOSExxP",
                                    "title": "Planned Treatment Dose for Period xx",
                                    "type": "Analysis Variable"
                                },
                                "self": {
                                    "href": "/mdr/adam/adamig-1-3/datastructures/ADSL/variables/DOSExxP",
                                    "title": "Planned Treatment Dose for Period xx",
                                    "type": "Analysis Variable"
                                }
                            },
                            "core": "Perm",
                            "description": "Subject-level identifier that represents the planned treatment dosage for period xx.",
                            "label": "Planned Treatment Dose for Period xx",
                            "name": "DOSExxP",
                            "ordinal": "1",
                            "simpleDatatype": "Num"
                        },
                        {
                            "_links": {
                                "parentDatastructure": {
                                    "href": "/mdr/adam/adamig-1-3/datastructures/ADSL",
                                    "title": "Subject-Level Analysis Dataset Structure",
                                    "type": "Data Structure"
                                },
                                "parentProduct": {
                                    "href": "/mdr/adam/adamig-1-3",
                                    "title": "Analysis Data Model Implementation Guide Version 1.3",
                                    "type": "Implementation Guide"
                                },
                                "parentVariableSet": {
                                    "href": "/mdr/adam/adamig-1-3/datastructures/ADSL/varsets/Dose",
                                    "title": "ADSL Dose",
                                    "type": "Variable Set"
                                },
                                "priorVersion": {
                                    "href": "/mdr/adam/adamig-1-2/datastructures/ADSL/variables/DOSExxA",
                                    "title": "Actual Treatment Dose for Period xx",
                                    "type": "Analysis Variable"
                                },
                                "self": {
                                    "href": "/mdr/adam/adamig-1-3/datastructures/ADSL/variables/DOSExxA",
                                    "title": "Actual Treatment Dose for Period xx",
                                    "type": "Analysis Variable"
                                }
                            },
                            "core": "Perm",
                            "description": "Subject-level identifier that represents the actual treatment dosage for period xx.",
                            "label": "Actual Treatment Dose for Period xx",
                            "name": "DOSExxA",
                            "ordinal": "2",
                            "simpleDatatype": "Num"
                        },
                        {
                            "_links": {
                                "parentDatastructure": {
                                    "href": "/mdr/adam/adamig-1-3/datastructures/ADSL",
                                    "title": "Subject-Level Analysis Dataset Structure",
                                    "type": "Data Structure"
                                },
                                "parentProduct": {
                                    "href": "/mdr/adam/adamig-1-3",
                                    "title": "Analysis Data Model Implementation Guide Version 1.3",
                                    "type": "Implementation Guide"
                                },
                                "parentVariableSet": {
                                    "href": "/mdr/adam/adamig-1-3/datastructures/ADSL/varsets/Dose",
                                    "title": "ADSL Dose",
                                    "type": "Variable Set"
                                },
                                "priorVersion": {
                                    "href": "/mdr/adam/adamig-1-2/datastructures/ADSL/variables/DOSExxU",
                                    "title": "Units for Dose for Period xx",
                                    "type": "Analysis Variable"
                                },
                                "self": {
                                    "href": "/mdr/adam/adamig-1-3/datastructures/ADSL/variables/DOSExxU",
                                    "title": "Units for Dose for Period xx",
                                    "type": "Analysis Variable"
                                }
                            },
                            "core": "Perm",
                            "description": "The units for DOSExxP and DOSExxA. It is permissible to use suffixes such as \"P\" and \"A\" if needed, with labels modified accordingly.",
                            "label": "Units for Dose for Period xx",
                            "name": "DOSExxU",
                            "ordinal": "3",
                            "simpleDatatype": "Char"
                        }
                    ],
                    "label": "ADSL Dose",
                    "name": "Dose",
                    "ordinal": "5"
                },
                {
                    "_links": {
                        "parentDatastructure": {
                            "href": "/mdr/adam/adamig-1-3/datastructures/ADSL",
                            "title": "Subject-Level Analysis Dataset Structure",
                            "type": "Data Structure"
                        },
                        "parentProduct": {
                            "href": "/mdr/adam/adamig-1-3",
                            "title": "Analysis Data Model Implementation Guide Version 1.3",
                            "type": "Implementation Guide"
                        },
                        "priorVersion": {
                            "href": "/mdr/adam/adamig-1-2/datastructures/ADSL/varsets/TreatmentTiming",
                            "title": "ADSL Treatment Timing Variables",
                            "type": "Variable Set"
                        },
                        "self": {
                            "href": "/mdr/adam/adamig-1-3/datastructures/ADSL/varsets/TreatmentTiming",
                            "title": "ADSL Treatment Timing Variables",
                            "type": "Variable Set"
                        }
                    },
                    "analysisVariables": [
                        {
                            "_links": {
                                "parentDatastructure": {
                                    "href": "/mdr/adam/adamig-1-3/datastructures/ADSL",
                                    "title": "Subject-Level Analysis Dataset Structure",
                                    "type": "Data Structure"
                                },
                                "parentProduct": {
                                    "href": "/mdr/adam/adamig-1-3",
                                    "title": "Analysis Data Model Implementation Guide Version 1.3",
                                    "type": "Implementation Guide"
                                },
                                "parentVariableSet": {
                                    "href": "/mdr/adam/adamig-1-3/datastructures/ADSL/varsets/TreatmentTiming",
                                    "title": "ADSL Treatment Timing Variables",
                                    "type": "Variable Set"
                                },
                                "priorVersion": {
                                    "href": "/mdr/adam/adamig-1-2/datastructures/ADSL/variables/TRTSDT",
                                    "title": "Date of First Exposure to Treatment",
                                    "type": "Analysis Variable"
                                },
                                "self": {
                                    "href": "/mdr/adam/adamig-1-3/datastructures/ADSL/variables/TRTSDT",
                                    "title": "Date of First Exposure to Treatment",
                                    "type": "Analysis Variable"
                                }
                            },
                            "core": "Cond",
                            "description": "Date of first exposure to treatment for a subject in a study. TRTSDT and/or TRTSDTM are required if there is an investigational product. Note that TRTSDT is not required to have the same value as the SDTM DM variable RFXSTDTC. While both of these dates reflect the concept of first exposure, the ADaM date may be derived to support the analysis which may not necessarily be the very first date in the SDTM EX domain.",
                            "label": "Date of First Exposure to Treatment",
                            "name": "TRTSDT",
                            "ordinal": "1",
                            "simpleDatatype": "Num"
                        },
                        {
                            "_links": {
                                "parentDatastructure": {
                                    "href": "/mdr/adam/adamig-1-3/datastructures/ADSL",
                                    "title": "Subject-Level Analysis Dataset Structure",
                                    "type": "Data Structure"
                                },
                                "parentProduct": {
                                    "href": "/mdr/adam/adamig-1-3",
                                    "title": "Analysis Data Model Implementation Guide Version 1.3",
                                    "type": "Implementation Guide"
                                },
                                "parentVariableSet": {
                                    "href": "/mdr/adam/adamig-1-3/datastructures/ADSL/varsets/TreatmentTiming",
                                    "title": "ADSL Treatment Timing Variables",
                                    "type": "Variable Set"
                                },
                                "priorVersion": {
                                    "href": "/mdr/adam/adamig-1-2/datastructures/ADSL/variables/TRTSTM",
                                    "title": "Time of First Exposure to Treatment",
                                    "type": "Analysis Variable"
                                },
                                "self": {
                                    "href": "/mdr/adam/adamig-1-3/datastructures/ADSL/variables/TRTSTM",
                                    "title": "Time of First Exposure to Treatment",
                                    "type": "Analysis Variable"
                                }
                            },
                            "core": "Perm",
                            "description": "Time of first exposure to treatment for a subject in a study.",
                            "label": "Time of First Exposure to Treatment",
                            "name": "TRTSTM",
                            "ordinal": "2",
                            "simpleDatatype": "Num"
                        },
                        {
                            "_links": {
                                "parentDatastructure": {
                                    "href": "/mdr/adam/adamig-1-3/datastructures/ADSL",
                                    "title": "Subject-Level Analysis Dataset Structure",
                                    "type": "Data Structure"
                                },
                                "parentProduct": {
                                    "href": "/mdr/adam/adamig-1-3",
                                    "title": "Analysis Data Model Implementation Guide Version 1.3",
                                    "type": "Implementation Guide"
                                },
                                "parentVariableSet": {
                                    "href": "/mdr/adam/adamig-1-3/datastructures/ADSL/varsets/TreatmentTiming",
                                    "title": "ADSL Treatment Timing Variables",
                                    "type": "Variable Set"
                                },
                                "priorVersion": {
                                    "href": "/mdr/adam/adamig-1-2/datastructures/ADSL/variables/TRTSDTM",
                                    "title": "Datetime of First Exposure to Treatment",
                                    "type": "Analysis Variable"
                                },
                                "self": {
                                    "href": "/mdr/adam/adamig-1-3/datastructures/ADSL/variables/TRTSDTM",
                                    "title": "Datetime of First Exposure to Treatment",
                                    "type": "Analysis Variable"
                                }
                            },
                            "core": "Cond",
                            "description": "Datetime of first exposure to treatment for a subject in a study. TRTSDT and/or TRTSDTM are required if there is an investigational product.",
                            "label": "Datetime of First Exposure to Treatment",
                            "name": "TRTSDTM",
                            "ordinal": "3",
                            "simpleDatatype": "Num"
                        },
                        {
                            "_links": {
                                "codelist": [
                                    {
                                        "href": "/mdr/root/ct/adamct/codelists/C81223",
                                        "title": "Version-agnostic anchor resource for codelist C81223",
                                        "type": "Root Value Domain"
                                    }
                                ],
                                "parentDatastructure": {
                                    "href": "/mdr/adam/adamig-1-3/datastructures/ADSL",
                                    "title": "Subject-Level Analysis Dataset Structure",
                                    "type": "Data Structure"
                                },
                                "parentProduct": {
                                    "href": "/mdr/adam/adamig-1-3",
                                    "title": "Analysis Data Model Implementation Guide Version 1.3",
                                    "type": "Implementation Guide"
                                },
                                "parentVariableSet": {
                                    "href": "/mdr/adam/adamig-1-3/datastructures/ADSL/varsets/TreatmentTiming",
                                    "title": "ADSL Treatment Timing Variables",
                                    "type": "Variable Set"
                                },
                                "priorVersion": {
                                    "href": "/mdr/adam/adamig-1-2/datastructures/ADSL/variables/TRTSDTF",
                                    "title": "Date of First Exposure Imput. Flag",
                                    "type": "Analysis Variable"
                                },
                                "self": {
                                    "href": "/mdr/adam/adamig-1-3/datastructures/ADSL/variables/TRTSDTF",
                                    "title": "Date of First Exposure Imput. Flag",
                                    "type": "Analysis Variable"
                                }
                            },
                            "codelistSubmissionValues": [
                                "DATEFL"
                            ],
                            "core": "Cond",
                            "description": "The level of imputation of date of first exposure to treatment. If TRTSDT (or the date part of TRTSDTM) was imputed, TRTSDTF must be populated and is required. See Section 3.1.3, Date and Time Imputation Flag Variables.",
                            "label": "Date of First Exposure Imput. Flag",
                            "name": "TRTSDTF",
                            "ordinal": "4",
                            "simpleDatatype": "Char"
                        },
                        {
                            "_links": {
                                "codelist": [
                                    {
                                        "href": "/mdr/root/ct/adamct/codelists/C81226",
                                        "title": "Version-agnostic anchor resource for codelist C81226",
                                        "type": "Root Value Domain"
                                    }
                                ],
                                "parentDatastructure": {
                                    "href": "/mdr/adam/adamig-1-3/datastructures/ADSL",
                                    "title": "Subject-Level Analysis Dataset Structure",
                                    "type": "Data Structure"
                                },
                                "parentProduct": {
                                    "href": "/mdr/adam/adamig-1-3",
                                    "title": "Analysis Data Model Implementation Guide Version 1.3",
                                    "type": "Implementation Guide"
                                },
                                "parentVariableSet": {
                                    "href": "/mdr/adam/adamig-1-3/datastructures/ADSL/varsets/TreatmentTiming",
                                    "title": "ADSL Treatment Timing Variables",
                                    "type": "Variable Set"
                                },
                                "priorVersion": {
                                    "href": "/mdr/adam/adamig-1-2/datastructures/ADSL/variables/TRTSTMF",
                                    "title": "Time of First Exposure Imput. Flag",
                                    "type": "Analysis Variable"
                                },
                                "self": {
                                    "href": "/mdr/adam/adamig-1-3/datastructures/ADSL/variables/TRTSTMF",
                                    "title": "Time of First Exposure Imput. Flag",
                                    "type": "Analysis Variable"
                                }
                            },
                            "codelistSubmissionValues": [
                                "TIMEFL"
                            ],
                            "core": "Cond",
                            "description": "The level of imputation of time of first exposure to treatment. If TRTSTM (or the time part of TRTSDTM) was imputed, TRTSTMF must be populated and is required. See Section 3.1.3, Date and Time Imputation Flag Variables.",
                            "label": "Time of First Exposure Imput. Flag",
                            "name": "TRTSTMF",
                            "ordinal": "5",
                            "simpleDatatype": "Char"
                        },
                        {
                            "_links": {
                                "parentDatastructure": {
                                    "href": "/mdr/adam/adamig-1-3/datastructures/ADSL",
                                    "title": "Subject-Level Analysis Dataset Structure",
                                    "type": "Data Structure"
                                },
                                "parentProduct": {
                                    "href": "/mdr/adam/adamig-1-3",
                                    "title": "Analysis Data Model Implementation Guide Version 1.3",
                                    "type": "Implementation Guide"
                                },
                                "parentVariableSet": {
                                    "href": "/mdr/adam/adamig-1-3/datastructures/ADSL/varsets/TreatmentTiming",
                                    "title": "ADSL Treatment Timing Variables",
                                    "type": "Variable Set"
                                },
                                "priorVersion": {
                                    "href": "/mdr/adam/adamig-1-2/datastructures/ADSL/variables/TRTEDT",
                                    "title": "Date of Last Exposure to Treatment",
                                    "type": "Analysis Variable"
                                },
                                "self": {
                                    "href": "/mdr/adam/adamig-1-3/datastructures/ADSL/variables/TRTEDT",
                                    "title": "Date of Last Exposure to Treatment",
                                    "type": "Analysis Variable"
                                }
                            },
                            "core": "Cond",
                            "description": "Date of last exposure to treatment for a subject in a study. TRTEDT and/or TRTEDTM are required if there is an investigational product. Note that TRTEDT is not required to have the same value as the SDTM DM variable RFXENDTC. While both of these dates reflect the concept of last exposure, the ADaM date may be derived to support the analysis which may not necessarily be the very last date in the SDTM EX domain.",
                            "label": "Date of Last Exposure to Treatment",
                            "name": "TRTEDT",
                            "ordinal": "6",
                            "simpleDatatype": "Num"
                        },
                        {
                            "_links": {
                                "parentDatastructure": {
                                    "href": "/mdr/adam/adamig-1-3/datastructures/ADSL",
                                    "title": "Subject-Level Analysis Dataset Structure",
                                    "type": "Data Structure"
                                },
                                "parentProduct": {
                                    "href": "/mdr/adam/adamig-1-3",
                                    "title": "Analysis Data Model Implementation Guide Version 1.3",
                                    "type": "Implementation Guide"
                                },
                                "parentVariableSet": {
                                    "href": "/mdr/adam/adamig-1-3/datastructures/ADSL/varsets/TreatmentTiming",
                                    "title": "ADSL Treatment Timing Variables",
                                    "type": "Variable Set"
                                },
                                "priorVersion": {
                                    "href": "/mdr/adam/adamig-1-2/datastructures/ADSL/variables/TRTETM",
                                    "title": "Time of Last Exposure to Treatment",
                                    "type": "Analysis Variable"
                                },
                                "self": {
                                    "href": "/mdr/adam/adamig-1-3/datastructures/ADSL/variables/TRTETM",
                                    "title": "Time of Last Exposure to Treatment",
                                    "type": "Analysis Variable"
                                }
                            },
                            "core": "Perm",
                            "description": "Time of last exposure to treatment for a subject in a study.",
                            "label": "Time of Last Exposure to Treatment",
                            "name": "TRTETM",
                            "ordinal": "7",
                            "simpleDatatype": "Num"
                        },
                        {
                            "_links": {
                                "parentDatastructure": {
                                    "href": "/mdr/adam/adamig-1-3/datastructures/ADSL",
                                    "title": "Subject-Level Analysis Dataset Structure",
                                    "type": "Data Structure"
                                },
                                "parentProduct": {
                                    "href": "/mdr/adam/adamig-1-3",
                                    "title": "Analysis Data Model Implementation Guide Version 1.3",
                                    "type": "Implementation Guide"
                                },
                                "parentVariableSet": {
                                    "href": "/mdr/adam/adamig-1-3/datastructures/ADSL/varsets/TreatmentTiming",
                                    "title": "ADSL Treatment Timing Variables",
                                    "type": "Variable Set"
                                },
                                "priorVersion": {
                                    "href": "/mdr/adam/adamig-1-2/datastructures/ADSL/variables/TRTEDTM",
                                    "title": "Datetime of Last Exposure to Treatment",
                                    "type": "Analysis Variable"
                                },
                                "self": {
                                    "href": "/mdr/adam/adamig-1-3/datastructures/ADSL/variables/TRTEDTM",
                                    "title": "Datetime of Last Exposure to Treatment",
                                    "type": "Analysis Variable"
                                }
                            },
                            "core": "Cond",
                            "description": "Datetime of last exposure to treatment for a subject in a study. TRTEDT and/or TRTEDTM are required if there is an investigational product.",
                            "label": "Datetime of Last Exposure to Treatment",
                            "name": "TRTEDTM",
                            "ordinal": "8",
                            "simpleDatatype": "Num"
                        },
                        {
                            "_links": {
                                "codelist": [
                                    {
                                        "href": "/mdr/root/ct/adamct/codelists/C81223",
                                        "title": "Version-agnostic anchor resource for codelist C81223",
                                        "type": "Root Value Domain"
                                    }
                                ],
                                "parentDatastructure": {
                                    "href": "/mdr/adam/adamig-1-3/datastructures/ADSL",
                                    "title": "Subject-Level Analysis Dataset Structure",
                                    "type": "Data Structure"
                                },
                                "parentProduct": {
                                    "href": "/mdr/adam/adamig-1-3",
                                    "title": "Analysis Data Model Implementation Guide Version 1.3",
                                    "type": "Implementation Guide"
                                },
                                "parentVariableSet": {
                                    "href": "/mdr/adam/adamig-1-3/datastructures/ADSL/varsets/TreatmentTiming",
                                    "title": "ADSL Treatment Timing Variables",
                                    "type": "Variable Set"
                                },
                                "priorVersion": {
                                    "href": "/mdr/adam/adamig-1-2/datastructures/ADSL/variables/TRTEDTF",
                                    "title": "Date of Last Exposure Imput. Flag",
                                    "type": "Analysis Variable"
                                },
                                "self": {
                                    "href": "/mdr/adam/adamig-1-3/datastructures/ADSL/variables/TRTEDTF",
                                    "title": "Date of Last Exposure Imput. Flag",
                                    "type": "Analysis Variable"
                                }
                            },
                            "codelistSubmissionValues": [
                                "DATEFL"
                            ],
                            "core": "Cond",
                            "description": "The level of imputation of date of last exposure to treatment. If TRTEDT (or the date part of TRTEDTM) was imputed, TRTEDTF must be populated and is required. See Section 3.1.3, Date and Time Imputation Flag Variables.",
                            "label": "Date of Last Exposure Imput. Flag",
                            "name": "TRTEDTF",
                            "ordinal": "9",
                            "simpleDatatype": "Char"
                        },
                        {
                            "_links": {
                                "codelist": [
                                    {
                                        "href": "/mdr/root/ct/adamct/codelists/C81226",
                                        "title": "Version-agnostic anchor resource for codelist C81226",
                                        "type": "Root Value Domain"
                                    }
                                ],
                                "parentDatastructure": {
                                    "href": "/mdr/adam/adamig-1-3/datastructures/ADSL",
                                    "title": "Subject-Level Analysis Dataset Structure",
                                    "type": "Data Structure"
                                },
                                "parentProduct": {
                                    "href": "/mdr/adam/adamig-1-3",
                                    "title": "Analysis Data Model Implementation Guide Version 1.3",
                                    "type": "Implementation Guide"
                                },
                                "parentVariableSet": {
                                    "href": "/mdr/adam/adamig-1-3/datastructures/ADSL/varsets/TreatmentTiming",
                                    "title": "ADSL Treatment Timing Variables",
                                    "type": "Variable Set"
                                },
                                "priorVersion": {
                                    "href": "/mdr/adam/adamig-1-2/datastructures/ADSL/variables/TRTETMF",
                                    "title": "Time of Last Exposure Imput. Flag",
                                    "type": "Analysis Variable"
                                },
                                "self": {
                                    "href": "/mdr/adam/adamig-1-3/datastructures/ADSL/variables/TRTETMF",
                                    "title": "Time of Last Exposure Imput. Flag",
                                    "type": "Analysis Variable"
                                }
                            },
                            "codelistSubmissionValues": [
                                "TIMEFL"
                            ],
                            "core": "Cond",
                            "description": "The level of imputation of time of last exposure to treatment. If TRTETM (or the time part of TRTEDTM) was imputed, TRTETMF must be populated and is required. See Section 3.1.3, Date and Time Imputation Flag Variables.",
                            "label": "Time of Last Exposure Imput. Flag",
                            "name": "TRTETMF",
                            "ordinal": "10",
                            "simpleDatatype": "Char"
                        },
                        {
                            "_links": {
                                "parentDatastructure": {
                                    "href": "/mdr/adam/adamig-1-3/datastructures/ADSL",
                                    "title": "Subject-Level Analysis Dataset Structure",
                                    "type": "Data Structure"
                                },
                                "parentProduct": {
                                    "href": "/mdr/adam/adamig-1-3",
                                    "title": "Analysis Data Model Implementation Guide Version 1.3",
                                    "type": "Implementation Guide"
                                },
                                "parentVariableSet": {
                                    "href": "/mdr/adam/adamig-1-3/datastructures/ADSL/varsets/TreatmentTiming",
                                    "title": "ADSL Treatment Timing Variables",
                                    "type": "Variable Set"
                                },
                                "priorVersion": {
                                    "href": "/mdr/adam/adamig-1-2/datastructures/ADSL/variables/TRxxSDT",
                                    "title": "Date of First Exposure in Period xx",
                                    "type": "Analysis Variable"
                                },
                                "self": {
                                    "href": "/mdr/adam/adamig-1-3/datastructures/ADSL/variables/TRxxSDT",
                                    "title": "Date of First Exposure in Period xx",
                                    "type": "Analysis Variable"
                                }
                            },
                            "core": "Cond",
                            "description": "Date of first exposure to treatment in period xx. TRxxSDT and/or TRxxSDTM are only required in trial designs where multiple treatment periods are defined (i.e., required when there is a TRTxxP other than TRT01P). Examples include crossover designs or designs where multiple periods exist for the same treatment.",
                            "label": "Date of First Exposure in Period xx",
                            "name": "TRxxSDT",
                            "ordinal": "11",
                            "simpleDatatype": "Num"
                        },
                        {
                            "_links": {
                                "parentDatastructure": {
                                    "href": "/mdr/adam/adamig-1-3/datastructures/ADSL",
                                    "title": "Subject-Level Analysis Dataset Structure",
                                    "type": "Data Structure"
                                },
                                "parentProduct": {
                                    "href": "/mdr/adam/adamig-1-3",
                                    "title": "Analysis Data Model Implementation Guide Version 1.3",
                                    "type": "Implementation Guide"
                                },
                                "parentVariableSet": {
                                    "href": "/mdr/adam/adamig-1-3/datastructures/ADSL/varsets/TreatmentTiming",
                                    "title": "ADSL Treatment Timing Variables",
                                    "type": "Variable Set"
                                },
                                "priorVersion": {
                                    "href": "/mdr/adam/adamig-1-2/datastructures/ADSL/variables/TRxxSTM",
                                    "title": "Time of First Exposure in Period xx",
                                    "type": "Analysis Variable"
                                },
                                "self": {
                                    "href": "/mdr/adam/adamig-1-3/datastructures/ADSL/variables/TRxxSTM",
                                    "title": "Time of First Exposure in Period xx",
                                    "type": "Analysis Variable"
                                }
                            },
                            "core": "Cond",
                            "description": "Starting time of exposure to treatment in period xx. TRxxSTM and/or TRxxSDTM are only required in trial designs where starting time is important to the analysis and multiple treatment periods are defined (i.e., required when there is a TRTxxP other than TRT01P).",
                            "label": "Time of First Exposure in Period xx",
                            "name": "TRxxSTM",
                            "ordinal": "12",
                            "simpleDatatype": "Num"
                        },
                        {
                            "_links": {
                                "parentDatastructure": {
                                    "href": "/mdr/adam/adamig-1-3/datastructures/ADSL",
                                    "title": "Subject-Level Analysis Dataset Structure",
                                    "type": "Data Structure"
                                },
                                "parentProduct": {
                                    "href": "/mdr/adam/adamig-1-3",
                                    "title": "Analysis Data Model Implementation Guide Version 1.3",
                                    "type": "Implementation Guide"
                                },
                                "parentVariableSet": {
                                    "href": "/mdr/adam/adamig-1-3/datastructures/ADSL/varsets/TreatmentTiming",
                                    "title": "ADSL Treatment Timing Variables",
                                    "type": "Variable Set"
                                },
                                "priorVersion": {
                                    "href": "/mdr/adam/adamig-1-2/datastructures/ADSL/variables/TRxxSDTM",
                                    "title": "Datetime of First Exposure in Period xx",
                                    "type": "Analysis Variable"
                                },
                                "self": {
                                    "href": "/mdr/adam/adamig-1-3/datastructures/ADSL/variables/TRxxSDTM",
                                    "title": "Datetime of First Exposure in Period xx",
                                    "type": "Analysis Variable"
                                }
                            },
                            "core": "Cond",
                            "description": "Datetime of first exposure to treatment in period xx. TRxxSDTM is only required in trial designs where multiple treatment periods are defined (i.e., required when there is a TRTxxP other than TRT01P).",
                            "label": "Datetime of First Exposure in Period xx",
                            "name": "TRxxSDTM",
                            "ordinal": "13",
                            "simpleDatatype": "Num"
                        },
                        {
                            "_links": {
                                "codelist": [
                                    {
                                        "href": "/mdr/root/ct/adamct/codelists/C81223",
                                        "title": "Version-agnostic anchor resource for codelist C81223",
                                        "type": "Root Value Domain"
                                    }
                                ],
                                "parentDatastructure": {
                                    "href": "/mdr/adam/adamig-1-3/datastructures/ADSL",
                                    "title": "Subject-Level Analysis Dataset Structure",
                                    "type": "Data Structure"
                                },
                                "parentProduct": {
                                    "href": "/mdr/adam/adamig-1-3",
                                    "title": "Analysis Data Model Implementation Guide Version 1.3",
                                    "type": "Implementation Guide"
                                },
                                "parentVariableSet": {
                                    "href": "/mdr/adam/adamig-1-3/datastructures/ADSL/varsets/TreatmentTiming",
                                    "title": "ADSL Treatment Timing Variables",
                                    "type": "Variable Set"
                                },
                                "priorVersion": {
                                    "href": "/mdr/adam/adamig-1-2/datastructures/ADSL/variables/TRxxSDTF",
                                    "title": "Date 1st Exposure Period xx Imput. Flag",
                                    "type": "Analysis Variable"
                                },
                                "self": {
                                    "href": "/mdr/adam/adamig-1-3/datastructures/ADSL/variables/TRxxSDTF",
                                    "title": "Date 1st Exposure Period xx Imput. Flag",
                                    "type": "Analysis Variable"
                                }
                            },
                            "codelistSubmissionValues": [
                                "DATEFL"
                            ],
                            "core": "Cond",
                            "description": "The level of imputation of date of first exposure to treatment in period xx. If TRxxSDT (or the date part of TRxxSDTM) was imputed, TRxxSDTF must be populated and is required. See Section 3.1.3, Date and Time Imputation Flag Variables.",
                            "label": "Date 1st Exposure Period xx Imput. Flag",
                            "name": "TRxxSDTF",
                            "ordinal": "14",
                            "simpleDatatype": "Char"
                        },
                        {
                            "_links": {
                                "codelist": [
                                    {
                                        "href": "/mdr/root/ct/adamct/codelists/C81226",
                                        "title": "Version-agnostic anchor resource for codelist C81226",
                                        "type": "Root Value Domain"
                                    }
                                ],
                                "parentDatastructure": {
                                    "href": "/mdr/adam/adamig-1-3/datastructures/ADSL",
                                    "title": "Subject-Level Analysis Dataset Structure",
                                    "type": "Data Structure"
                                },
                                "parentProduct": {
                                    "href": "/mdr/adam/adamig-1-3",
                                    "title": "Analysis Data Model Implementation Guide Version 1.3",
                                    "type": "Implementation Guide"
                                },
                                "parentVariableSet": {
                                    "href": "/mdr/adam/adamig-1-3/datastructures/ADSL/varsets/TreatmentTiming",
                                    "title": "ADSL Treatment Timing Variables",
                                    "type": "Variable Set"
                                },
                                "priorVersion": {
                                    "href": "/mdr/adam/adamig-1-2/datastructures/ADSL/variables/TRxxSTMF",
                                    "title": "Time 1st Exposure Period xx Imput. Flag",
                                    "type": "Analysis Variable"
                                },
                                "self": {
                                    "href": "/mdr/adam/adamig-1-3/datastructures/ADSL/variables/TRxxSTMF",
                                    "title": "Time 1st Exposure Period xx Imput. Flag",
                                    "type": "Analysis Variable"
                                }
                            },
                            "codelistSubmissionValues": [
                                "TIMEFL"
                            ],
                            "core": "Cond",
                            "description": "The level of imputation of time of first exposure to treatment in period xx. If TRxxSTM (or the time part of TRxxSDTM) was imputed, TRxxSTMF must be populated and is required. See Section 3.1.3, Date and Time Imputation Flag Variables.",
                            "label": "Time 1st Exposure Period xx Imput. Flag",
                            "name": "TRxxSTMF",
                            "ordinal": "15",
                            "simpleDatatype": "Char"
                        },
                        {
                            "_links": {
                                "parentDatastructure": {
                                    "href": "/mdr/adam/adamig-1-3/datastructures/ADSL",
                                    "title": "Subject-Level Analysis Dataset Structure",
                                    "type": "Data Structure"
                                },
                                "parentProduct": {
                                    "href": "/mdr/adam/adamig-1-3",
                                    "title": "Analysis Data Model Implementation Guide Version 1.3",
                                    "type": "Implementation Guide"
                                },
                                "parentVariableSet": {
                                    "href": "/mdr/adam/adamig-1-3/datastructures/ADSL/varsets/TreatmentTiming",
                                    "title": "ADSL Treatment Timing Variables",
                                    "type": "Variable Set"
                                },
                                "priorVersion": {
                                    "href": "/mdr/adam/adamig-1-2/datastructures/ADSL/variables/TRxxEDT",
                                    "title": "Date of Last Exposure in Period xx",
                                    "type": "Analysis Variable"
                                },
                                "self": {
                                    "href": "/mdr/adam/adamig-1-3/datastructures/ADSL/variables/TRxxEDT",
                                    "title": "Date of Last Exposure in Period xx",
                                    "type": "Analysis Variable"
                                }
                            },
                            "core": "Cond",
                            "description": "Date of last exposure to treatment in period xx. TRxxEDT and/or TRxxEDTM are only required in trial designs where multiple treatment periods are defined (i.e., required when there is a TRTxxP other than TRT01P).",
                            "label": "Date of Last Exposure in Period xx",
                            "name": "TRxxEDT",
                            "ordinal": "16",
                            "simpleDatatype": "Num"
                        },
                        {
                            "_links": {
                                "parentDatastructure": {
                                    "href": "/mdr/adam/adamig-1-3/datastructures/ADSL",
                                    "title": "Subject-Level Analysis Dataset Structure",
                                    "type": "Data Structure"
                                },
                                "parentProduct": {
                                    "href": "/mdr/adam/adamig-1-3",
                                    "title": "Analysis Data Model Implementation Guide Version 1.3",
                                    "type": "Implementation Guide"
                                },
                                "parentVariableSet": {
                                    "href": "/mdr/adam/adamig-1-3/datastructures/ADSL/varsets/TreatmentTiming",
                                    "title": "ADSL Treatment Timing Variables",
                                    "type": "Variable Set"
                                },
                                "priorVersion": {
                                    "href": "/mdr/adam/adamig-1-2/datastructures/ADSL/variables/TRxxETM",
                                    "title": "Time of Last Exposure in Period xx",
                                    "type": "Analysis Variable"
                                },
                                "self": {
                                    "href": "/mdr/adam/adamig-1-3/datastructures/ADSL/variables/TRxxETM",
                                    "title": "Time of Last Exposure in Period xx",
                                    "type": "Analysis Variable"
                                }
                            },
                            "core": "Cond",
                            "description": "Ending time of exposure to treatment in period xx. TRxxETM and/or TRxxEDTM are only required in trial designs where ending time is important to the analysis and multiple treatment periods are defined (i.e., required when there is a TRTxxP other than TRT01P).",
                            "label": "Time of Last Exposure in Period xx",
                            "name": "TRxxETM",
                            "ordinal": "17",
                            "simpleDatatype": "Num"
                        },
                        {
                            "_links": {
                                "parentDatastructure": {
                                    "href": "/mdr/adam/adamig-1-3/datastructures/ADSL",
                                    "title": "Subject-Level Analysis Dataset Structure",
                                    "type": "Data Structure"
                                },
                                "parentProduct": {
                                    "href": "/mdr/adam/adamig-1-3",
                                    "title": "Analysis Data Model Implementation Guide Version 1.3",
                                    "type": "Implementation Guide"
                                },
                                "parentVariableSet": {
                                    "href": "/mdr/adam/adamig-1-3/datastructures/ADSL/varsets/TreatmentTiming",
                                    "title": "ADSL Treatment Timing Variables",
                                    "type": "Variable Set"
                                },
                                "priorVersion": {
                                    "href": "/mdr/adam/adamig-1-2/datastructures/ADSL/variables/TRxxEDTM",
                                    "title": "Datetime of Last Exposure in Period xx",
                                    "type": "Analysis Variable"
                                },
                                "self": {
                                    "href": "/mdr/adam/adamig-1-3/datastructures/ADSL/variables/TRxxEDTM",
                                    "title": "Datetime of Last Exposure in Period xx",
                                    "type": "Analysis Variable"
                                }
                            },
                            "core": "Cond",
                            "description": "Datetime of last exposure to treatment in period xx. TRxxEDTM is only required in trial designs where multiple treatment periods are defined (i.e., required when there is a TRTxxP other than TRT01P).",
                            "label": "Datetime of Last Exposure in Period xx",
                            "name": "TRxxEDTM",
                            "ordinal": "18",
                            "simpleDatatype": "Num"
                        },
                        {
                            "_links": {
                                "codelist": [
                                    {
                                        "href": "/mdr/root/ct/adamct/codelists/C81223",
                                        "title": "Version-agnostic anchor resource for codelist C81223",
                                        "type": "Root Value Domain"
                                    }
                                ],
                                "parentDatastructure": {
                                    "href": "/mdr/adam/adamig-1-3/datastructures/ADSL",
                                    "title": "Subject-Level Analysis Dataset Structure",
                                    "type": "Data Structure"
                                },
                                "parentProduct": {
                                    "href": "/mdr/adam/adamig-1-3",
                                    "title": "Analysis Data Model Implementation Guide Version 1.3",
                                    "type": "Implementation Guide"
                                },
                                "parentVariableSet": {
                                    "href": "/mdr/adam/adamig-1-3/datastructures/ADSL/varsets/TreatmentTiming",
                                    "title": "ADSL Treatment Timing Variables",
                                    "type": "Variable Set"
                                },
                                "priorVersion": {
                                    "href": "/mdr/adam/adamig-1-2/datastructures/ADSL/variables/TRxxEDTF",
                                    "title": "Date Last Exposure Period xx Imput. Flag",
                                    "type": "Analysis Variable"
                                },
                                "self": {
                                    "href": "/mdr/adam/adamig-1-3/datastructures/ADSL/variables/TRxxEDTF",
                                    "title": "Date Last Exposure Period xx Imput. Flag",
                                    "type": "Analysis Variable"
                                }
                            },
                            "codelistSubmissionValues": [
                                "DATEFL"
                            ],
                            "core": "Cond",
                            "description": "The level of imputation of date of last exposure to treatment in period xx. If TRxxEDT (or the date part of TRxxEDTM) was imputed, TRxxEDTF must be populated and is required. See Section 3.1.3, Date and Time Imputation Flag Variables.",
                            "label": "Date Last Exposure Period xx Imput. Flag",
                            "name": "TRxxEDTF",
                            "ordinal": "19",
                            "simpleDatatype": "Char"
                        },
                        {
                            "_links": {
                                "codelist": [
                                    {
                                        "href": "/mdr/root/ct/adamct/codelists/C81226",
                                        "title": "Version-agnostic anchor resource for codelist C81226",
                                        "type": "Root Value Domain"
                                    }
                                ],
                                "parentDatastructure": {
                                    "href": "/mdr/adam/adamig-1-3/datastructures/ADSL",
                                    "title": "Subject-Level Analysis Dataset Structure",
                                    "type": "Data Structure"
                                },
                                "parentProduct": {
                                    "href": "/mdr/adam/adamig-1-3",
                                    "title": "Analysis Data Model Implementation Guide Version 1.3",
                                    "type": "Implementation Guide"
                                },
                                "parentVariableSet": {
                                    "href": "/mdr/adam/adamig-1-3/datastructures/ADSL/varsets/TreatmentTiming",
                                    "title": "ADSL Treatment Timing Variables",
                                    "type": "Variable Set"
                                },
                                "priorVersion": {
                                    "href": "/mdr/adam/adamig-1-2/datastructures/ADSL/variables/TRxxETMF",
                                    "title": "Time Last Exposure Period xx Imput. Flag",
                                    "type": "Analysis Variable"
                                },
                                "self": {
                                    "href": "/mdr/adam/adamig-1-3/datastructures/ADSL/variables/TRxxETMF",
                                    "title": "Time Last Exposure Period xx Imput. Flag",
                                    "type": "Analysis Variable"
                                }
                            },
                            "codelistSubmissionValues": [
                                "TIMEFL"
                            ],
                            "core": "Cond",
                            "description": "The level of imputation of time of last exposure to treatment in period xx. If TRxxETM (or the time part of TRxxEDTM) was imputed, TRxxETMF must be populated and is required. See Section 3.1.3, Date and Time Imputation Flag Variables.",
                            "label": "Time Last Exposure Period xx Imput. Flag",
                            "name": "TRxxETMF",
                            "ordinal": "20",
                            "simpleDatatype": "Char"
                        }
                    ],
                    "label": "ADSL Treatment Timing Variables",
                    "name": "Treatment Timing",
                    "ordinal": "6"
                },
                {
                    "_links": {
                        "parentDatastructure": {
                            "href": "/mdr/adam/adamig-1-3/datastructures/ADSL",
                            "title": "Subject-Level Analysis Dataset Structure",
                            "type": "Data Structure"
                        },
                        "parentProduct": {
                            "href": "/mdr/adam/adamig-1-3",
                            "title": "Analysis Data Model Implementation Guide Version 1.3",
                            "type": "Implementation Guide"
                        },
                        "self": {
                            "href": "/mdr/adam/adamig-1-3/datastructures/ADSL/varsets/PeriodSubperiodandPhaseTiming",
                            "title": "ADSL Period, Subperiod, and Phase Timing",
                            "type": "Variable Set"
                        }
                    },
                    "analysisVariables": [
                        {
                            "_links": {
                                "parentDatastructure": {
                                    "href": "/mdr/adam/adamig-1-3/datastructures/ADSL",
                                    "title": "Subject-Level Analysis Dataset Structure",
                                    "type": "Data Structure"
                                },
                                "parentProduct": {
                                    "href": "/mdr/adam/adamig-1-3",
                                    "title": "Analysis Data Model Implementation Guide Version 1.3",
                                    "type": "Implementation Guide"
                                },
                                "parentVariableSet": {
                                    "href": "/mdr/adam/adamig-1-3/datastructures/ADSL/varsets/PeriodSubperiodandPhaseTiming",
                                    "title": "ADSL Period, Subperiod, and Phase Timing",
                                    "type": "Variable Set"
                                },
                                "priorVersion": {
                                    "href": "/mdr/adam/adamig-1-2/datastructures/ADSL/variables/APxxSDT",
                                    "title": "Period xx Start Date",
                                    "type": "Analysis Variable"
                                },
                                "self": {
                                    "href": "/mdr/adam/adamig-1-3/datastructures/ADSL/variables/APxxSDT",
                                    "title": "Period xx Start Date",
                                    "type": "Analysis Variable"
                                }
                            },
                            "core": "Perm",
                            "description": "The starting date of period xx.",
                            "label": "Period xx Start Date",
                            "name": "APxxSDT",
                            "ordinal": "1",
                            "simpleDatatype": "Num"
                        },
                        {
                            "_links": {
                                "parentDatastructure": {
                                    "href": "/mdr/adam/adamig-1-3/datastructures/ADSL",
                                    "title": "Subject-Level Analysis Dataset Structure",
                                    "type": "Data Structure"
                                },
                                "parentProduct": {
                                    "href": "/mdr/adam/adamig-1-3",
                                    "title": "Analysis Data Model Implementation Guide Version 1.3",
                                    "type": "Implementation Guide"
                                },
                                "parentVariableSet": {
                                    "href": "/mdr/adam/adamig-1-3/datastructures/ADSL/varsets/PeriodSubperiodandPhaseTiming",
                                    "title": "ADSL Period, Subperiod, and Phase Timing",
                                    "type": "Variable Set"
                                },
                                "priorVersion": {
                                    "href": "/mdr/adam/adamig-1-2/datastructures/ADSL/variables/APxxSTM",
                                    "title": "Period xx Start Time",
                                    "type": "Analysis Variable"
                                },
                                "self": {
                                    "href": "/mdr/adam/adamig-1-3/datastructures/ADSL/variables/APxxSTM",
                                    "title": "Period xx Start Time",
                                    "type": "Analysis Variable"
                                }
                            },
                            "core": "Perm",
                            "description": "The starting time of period xx.",
                            "label": "Period xx Start Time",
                            "name": "APxxSTM",
                            "ordinal": "2",
                            "simpleDatatype": "Num"
                        },
                        {
                            "_links": {
                                "parentDatastructure": {
                                    "href": "/mdr/adam/adamig-1-3/datastructures/ADSL",
                                    "title": "Subject-Level Analysis Dataset Structure",
                                    "type": "Data Structure"
                                },
                                "parentProduct": {
                                    "href": "/mdr/adam/adamig-1-3",
                                    "title": "Analysis Data Model Implementation Guide Version 1.3",
                                    "type": "Implementation Guide"
                                },
                                "parentVariableSet": {
                                    "href": "/mdr/adam/adamig-1-3/datastructures/ADSL/varsets/PeriodSubperiodandPhaseTiming",
                                    "title": "ADSL Period, Subperiod, and Phase Timing",
                                    "type": "Variable Set"
                                },
                                "priorVersion": {
                                    "href": "/mdr/adam/adamig-1-2/datastructures/ADSL/variables/APxxSDTM",
                                    "title": "Period xx Start Datetime",
                                    "type": "Analysis Variable"
                                },
                                "self": {
                                    "href": "/mdr/adam/adamig-1-3/datastructures/ADSL/variables/APxxSDTM",
                                    "title": "Period xx Start Datetime",
                                    "type": "Analysis Variable"
                                }
                            },
                            "core": "Perm",
                            "description": "The starting datetime of period xx.",
                            "label": "Period xx Start Datetime",
                            "name": "APxxSDTM",
                            "ordinal": "3",
                            "simpleDatatype": "Num"
                        },
                        {
                            "_links": {
                                "codelist": [
                                    {
                                        "href": "/mdr/root/ct/adamct/codelists/C81223",
                                        "title": "Version-agnostic anchor resource for codelist C81223",
                                        "type": "Root Value Domain"
                                    }
                                ],
                                "parentDatastructure": {
                                    "href": "/mdr/adam/adamig-1-3/datastructures/ADSL",
                                    "title": "Subject-Level Analysis Dataset Structure",
                                    "type": "Data Structure"
                                },
                                "parentProduct": {
                                    "href": "/mdr/adam/adamig-1-3",
                                    "title": "Analysis Data Model Implementation Guide Version 1.3",
                                    "type": "Implementation Guide"
                                },
                                "parentVariableSet": {
                                    "href": "/mdr/adam/adamig-1-3/datastructures/ADSL/varsets/PeriodSubperiodandPhaseTiming",
                                    "title": "ADSL Period, Subperiod, and Phase Timing",
                                    "type": "Variable Set"
                                },
                                "priorVersion": {
                                    "href": "/mdr/adam/adamig-1-2/datastructures/ADSL/variables/APxxSDTF",
                                    "title": "Period xx Start Date Imput. Flag",
                                    "type": "Analysis Variable"
                                },
                                "self": {
                                    "href": "/mdr/adam/adamig-1-3/datastructures/ADSL/variables/APxxSDTF",
                                    "title": "Period xx Start Date Imput. Flag",
                                    "type": "Analysis Variable"
                                }
                            },
                            "codelistSubmissionValues": [
                                "DATEFL"
                            ],
                            "core": "Cond",
                            "description": "The level of imputation of period xx start date. See Section 3.1.3, Date and Time Imputation Flag Variables.",
                            "label": "Period xx Start Date Imput. Flag",
                            "name": "APxxSDTF",
                            "ordinal": "4",
                            "simpleDatatype": "Char"
                        },
                        {
                            "_links": {
                                "codelist": [
                                    {
                                        "href": "/mdr/root/ct/adamct/codelists/C81226",
                                        "title": "Version-agnostic anchor resource for codelist C81226",
                                        "type": "Root Value Domain"
                                    }
                                ],
                                "parentDatastructure": {
                                    "href": "/mdr/adam/adamig-1-3/datastructures/ADSL",
                                    "title": "Subject-Level Analysis Dataset Structure",
                                    "type": "Data Structure"
                                },
                                "parentProduct": {
                                    "href": "/mdr/adam/adamig-1-3",
                                    "title": "Analysis Data Model Implementation Guide Version 1.3",
                                    "type": "Implementation Guide"
                                },
                                "parentVariableSet": {
                                    "href": "/mdr/adam/adamig-1-3/datastructures/ADSL/varsets/PeriodSubperiodandPhaseTiming",
                                    "title": "ADSL Period, Subperiod, and Phase Timing",
                                    "type": "Variable Set"
                                },
                                "priorVersion": {
                                    "href": "/mdr/adam/adamig-1-2/datastructures/ADSL/variables/APxxSTMF",
                                    "title": "Period xx Start Time Imput. Flag",
                                    "type": "Analysis Variable"
                                },
                                "self": {
                                    "href": "/mdr/adam/adamig-1-3/datastructures/ADSL/variables/APxxSTMF",
                                    "title": "Period xx Start Time Imput. Flag",
                                    "type": "Analysis Variable"
                                }
                            },
                            "codelistSubmissionValues": [
                                "TIMEFL"
                            ],
                            "core": "Cond",
                            "description": "The level of imputation of period xx start time. See Section 3.1.3, Date and Time Imputation Flag Variables.",
                            "label": "Period xx Start Time Imput. Flag",
                            "name": "APxxSTMF",
                            "ordinal": "5",
                            "simpleDatatype": "Char"
                        },
                        {
                            "_links": {
                                "parentDatastructure": {
                                    "href": "/mdr/adam/adamig-1-3/datastructures/ADSL",
                                    "title": "Subject-Level Analysis Dataset Structure",
                                    "type": "Data Structure"
                                },
                                "parentProduct": {
                                    "href": "/mdr/adam/adamig-1-3",
                                    "title": "Analysis Data Model Implementation Guide Version 1.3",
                                    "type": "Implementation Guide"
                                },
                                "parentVariableSet": {
                                    "href": "/mdr/adam/adamig-1-3/datastructures/ADSL/varsets/PeriodSubperiodandPhaseTiming",
                                    "title": "ADSL Period, Subperiod, and Phase Timing",
                                    "type": "Variable Set"
                                },
                                "priorVersion": {
                                    "href": "/mdr/adam/adamig-1-2/datastructures/ADSL/variables/APxxEDT",
                                    "title": "Period xx End Date",
                                    "type": "Analysis Variable"
                                },
                                "self": {
                                    "href": "/mdr/adam/adamig-1-3/datastructures/ADSL/variables/APxxEDT",
                                    "title": "Period xx End Date",
                                    "type": "Analysis Variable"
                                }
                            },
                            "core": "Perm",
                            "description": "The ending date of period xx.",
                            "label": "Period xx End Date",
                            "name": "APxxEDT",
                            "ordinal": "6",
                            "simpleDatatype": "Num"
                        },
                        {
                            "_links": {
                                "parentDatastructure": {
                                    "href": "/mdr/adam/adamig-1-3/datastructures/ADSL",
                                    "title": "Subject-Level Analysis Dataset Structure",
                                    "type": "Data Structure"
                                },
                                "parentProduct": {
                                    "href": "/mdr/adam/adamig-1-3",
                                    "title": "Analysis Data Model Implementation Guide Version 1.3",
                                    "type": "Implementation Guide"
                                },
                                "parentVariableSet": {
                                    "href": "/mdr/adam/adamig-1-3/datastructures/ADSL/varsets/PeriodSubperiodandPhaseTiming",
                                    "title": "ADSL Period, Subperiod, and Phase Timing",
                                    "type": "Variable Set"
                                },
                                "priorVersion": {
                                    "href": "/mdr/adam/adamig-1-2/datastructures/ADSL/variables/APxxETM",
                                    "title": "Period xx End Time",
                                    "type": "Analysis Variable"
                                },
                                "self": {
                                    "href": "/mdr/adam/adamig-1-3/datastructures/ADSL/variables/APxxETM",
                                    "title": "Period xx End Time",
                                    "type": "Analysis Variable"
                                }
                            },
                            "core": "Perm",
                            "description": "The ending time of period xx.",
                            "label": "Period xx End Time",
                            "name": "APxxETM",
                            "ordinal": "7",
                            "simpleDatatype": "Num"
                        },
                        {
                            "_links": {
                                "parentDatastructure": {
                                    "href": "/mdr/adam/adamig-1-3/datastructures/ADSL",
                                    "title": "Subject-Level Analysis Dataset Structure",
                                    "type": "Data Structure"
                                },
                                "parentProduct": {
                                    "href": "/mdr/adam/adamig-1-3",
                                    "title": "Analysis Data Model Implementation Guide Version 1.3",
                                    "type": "Implementation Guide"
                                },
                                "parentVariableSet": {
                                    "href": "/mdr/adam/adamig-1-3/datastructures/ADSL/varsets/PeriodSubperiodandPhaseTiming",
                                    "title": "ADSL Period, Subperiod, and Phase Timing",
                                    "type": "Variable Set"
                                },
                                "priorVersion": {
                                    "href": "/mdr/adam/adamig-1-2/datastructures/ADSL/variables/APxxEDTM",
                                    "title": "Period xx End Datetime",
                                    "type": "Analysis Variable"
                                },
                                "self": {
                                    "href": "/mdr/adam/adamig-1-3/datastructures/ADSL/variables/APxxEDTM",
                                    "title": "Period xx End Datetime",
                                    "type": "Analysis Variable"
                                }
                            },
                            "core": "Perm",
                            "description": "The ending datetime of period xx.",
                            "label": "Period xx End Datetime",
                            "name": "APxxEDTM",
                            "ordinal": "8",
                            "simpleDatatype": "Num"
                        },
                        {
                            "_links": {
                                "codelist": [
                                    {
                                        "href": "/mdr/root/ct/adamct/codelists/C81223",
                                        "title": "Version-agnostic anchor resource for codelist C81223",
                                        "type": "Root Value Domain"
                                    }
                                ],
                                "parentDatastructure": {
                                    "href": "/mdr/adam/adamig-1-3/datastructures/ADSL",
                                    "title": "Subject-Level Analysis Dataset Structure",
                                    "type": "Data Structure"
                                },
                                "parentProduct": {
                                    "href": "/mdr/adam/adamig-1-3",
                                    "title": "Analysis Data Model Implementation Guide Version 1.3",
                                    "type": "Implementation Guide"
                                },
                                "parentVariableSet": {
                                    "href": "/mdr/adam/adamig-1-3/datastructures/ADSL/varsets/PeriodSubperiodandPhaseTiming",
                                    "title": "ADSL Period, Subperiod, and Phase Timing",
                                    "type": "Variable Set"
                                },
                                "priorVersion": {
                                    "href": "/mdr/adam/adamig-1-2/datastructures/ADSL/variables/APxxEDTF",
                                    "title": "Period xx End Date Imput. Flag",
                                    "type": "Analysis Variable"
                                },
                                "self": {
                                    "href": "/mdr/adam/adamig-1-3/datastructures/ADSL/variables/APxxEDTF",
                                    "title": "Period xx End Date Imput. Flag",
                                    "type": "Analysis Variable"
                                }
                            },
                            "codelistSubmissionValues": [
                                "DATEFL"
                            ],
                            "core": "Cond",
                            "description": "The level of imputation of period xx end date. See Section 3.1.3, Date and Time Imputation Flag Variables.",
                            "label": "Period xx End Date Imput. Flag",
                            "name": "APxxEDTF",
                            "ordinal": "9",
                            "simpleDatatype": "Char"
                        },
                        {
                            "_links": {
                                "codelist": [
                                    {
                                        "href": "/mdr/root/ct/adamct/codelists/C81226",
                                        "title": "Version-agnostic anchor resource for codelist C81226",
                                        "type": "Root Value Domain"
                                    }
                                ],
                                "parentDatastructure": {
                                    "href": "/mdr/adam/adamig-1-3/datastructures/ADSL",
                                    "title": "Subject-Level Analysis Dataset Structure",
                                    "type": "Data Structure"
                                },
                                "parentProduct": {
                                    "href": "/mdr/adam/adamig-1-3",
                                    "title": "Analysis Data Model Implementation Guide Version 1.3",
                                    "type": "Implementation Guide"
                                },
                                "parentVariableSet": {
                                    "href": "/mdr/adam/adamig-1-3/datastructures/ADSL/varsets/PeriodSubperiodandPhaseTiming",
                                    "title": "ADSL Period, Subperiod, and Phase Timing",
                                    "type": "Variable Set"
                                },
                                "priorVersion": {
                                    "href": "/mdr/adam/adamig-1-2/datastructures/ADSL/variables/APxxETMF",
                                    "title": "Period xx End Time Imput. Flag",
                                    "type": "Analysis Variable"
                                },
                                "self": {
                                    "href": "/mdr/adam/adamig-1-3/datastructures/ADSL/variables/APxxETMF",
                                    "title": "Period xx End Time Imput. Flag",
                                    "type": "Analysis Variable"
                                }
                            },
                            "codelistSubmissionValues": [
                                "TIMEFL"
                            ],
                            "core": "Cond",
                            "description": "The level of imputation of period xx end time. See Section 3.1.3, Date and Time Imputation Flag Variables.",
                            "label": "Period xx End Time Imput. Flag",
                            "name": "APxxETMF",
                            "ordinal": "10",
                            "simpleDatatype": "Char"
                        },
                        {
                            "_links": {
                                "parentDatastructure": {
                                    "href": "/mdr/adam/adamig-1-3/datastructures/ADSL",
                                    "title": "Subject-Level Analysis Dataset Structure",
                                    "type": "Data Structure"
                                },
                                "parentProduct": {
                                    "href": "/mdr/adam/adamig-1-3",
                                    "title": "Analysis Data Model Implementation Guide Version 1.3",
                                    "type": "Implementation Guide"
                                },
                                "parentVariableSet": {
                                    "href": "/mdr/adam/adamig-1-3/datastructures/ADSL/varsets/PeriodSubperiodandPhaseTiming",
                                    "title": "ADSL Period, Subperiod, and Phase Timing",
                                    "type": "Variable Set"
                                },
                                "priorVersion": {
                                    "href": "/mdr/adam/adamig-1-2/datastructures/ADSL/variables/PxxSw",
                                    "title": "Description of Period xx Subperiod w",
                                    "type": "Analysis Variable"
                                },
                                "self": {
                                    "href": "/mdr/adam/adamig-1-3/datastructures/ADSL/variables/PxxSw",
                                    "title": "Description of Period xx Subperiod w",
                                    "type": "Analysis Variable"
                                }
                            },
                            "core": "Perm",
                            "description": "Description of analysis subperiod w within period xx.",
                            "label": "Description of Period xx Subperiod w",
                            "name": "PxxSw",
                            "ordinal": "11",
                            "simpleDatatype": "Char"
                        },
                        {
                            "_links": {
                                "parentDatastructure": {
                                    "href": "/mdr/adam/adamig-1-3/datastructures/ADSL",
                                    "title": "Subject-Level Analysis Dataset Structure",
                                    "type": "Data Structure"
                                },
                                "parentProduct": {
                                    "href": "/mdr/adam/adamig-1-3",
                                    "title": "Analysis Data Model Implementation Guide Version 1.3",
                                    "type": "Implementation Guide"
                                },
                                "parentVariableSet": {
                                    "href": "/mdr/adam/adamig-1-3/datastructures/ADSL/varsets/PeriodSubperiodandPhaseTiming",
                                    "title": "ADSL Period, Subperiod, and Phase Timing",
                                    "type": "Variable Set"
                                },
                                "priorVersion": {
                                    "href": "/mdr/adam/adamig-1-2/datastructures/ADSL/variables/PxxSwSDT",
                                    "title": "Period xx Subperiod w Start Date",
                                    "type": "Analysis Variable"
                                },
                                "self": {
                                    "href": "/mdr/adam/adamig-1-3/datastructures/ADSL/variables/PxxSwSDT",
                                    "title": "Period xx Subperiod w Start Date",
                                    "type": "Analysis Variable"
                                }
                            },
                            "core": "Perm",
                            "description": "The starting date of subperiod w within period xx.",
                            "label": "Period xx Subperiod w Start Date",
                            "name": "PxxSwSDT",
                            "ordinal": "12",
                            "simpleDatatype": "Num"
                        },
                        {
                            "_links": {
                                "parentDatastructure": {
                                    "href": "/mdr/adam/adamig-1-3/datastructures/ADSL",
                                    "title": "Subject-Level Analysis Dataset Structure",
                                    "type": "Data Structure"
                                },
                                "parentProduct": {
                                    "href": "/mdr/adam/adamig-1-3",
                                    "title": "Analysis Data Model Implementation Guide Version 1.3",
                                    "type": "Implementation Guide"
                                },
                                "parentVariableSet": {
                                    "href": "/mdr/adam/adamig-1-3/datastructures/ADSL/varsets/PeriodSubperiodandPhaseTiming",
                                    "title": "ADSL Period, Subperiod, and Phase Timing",
                                    "type": "Variable Set"
                                },
                                "priorVersion": {
                                    "href": "/mdr/adam/adamig-1-2/datastructures/ADSL/variables/PxxSwSTM",
                                    "title": "Period xx Subperiod w Start Time",
                                    "type": "Analysis Variable"
                                },
                                "self": {
                                    "href": "/mdr/adam/adamig-1-3/datastructures/ADSL/variables/PxxSwSTM",
                                    "title": "Period xx Subperiod w Start Time",
                                    "type": "Analysis Variable"
                                }
                            },
                            "core": "Perm",
                            "description": "The starting time of subperiod w within period xx.",
