{"_links": {"model": {"href": "/mdr/adam/adam-2-1", "title": "Analysis Data Model Version 2.1", "type": "Foundational Model"}, "priorVersion": {"href": "/mdr/adam/adamig-1-1", "title": "Analysis Data Model Implementation Guide Version 1.1", "type": "Implementation Guide"}, "self": {"href": "/mdr/adam/adamig-1-2", "title": "Analysis Data Model Implementation Guide Version 1.2", "type": "Implementation Guide"}}, "dataStructures": [{"_links": {"parentProduct": {"href": "/mdr/adam/adamig-1-2", "title": "Analysis Data Model Implementation Guide Version 1.2", "type": "Implementation Guide"}, "priorVersion": {"href": "/mdr/adam/adamig-1-1/datastructures/ADSL", "title": "Subject-Level Analysis Dataset Structure", "type": "Data Structure"}, "self": {"href": "/mdr/adam/adamig-1-2/datastructures/ADSL", "title": "Subject-Level Analysis Dataset Structure", "type": "Data Structure"}}, "analysisVariableSets": [{"_links": {"parentDatastructure": {"href": "/mdr/adam/adamig-1-2/datastructures/ADSL", "title": "Subject-Level Analysis Dataset Structure", "type": "Data Structure"}, "parentProduct": {"href": "/mdr/adam/adamig-1-2", "title": "Analysis Data Model Implementation Guide Version 1.2", "type": "Implementation Guide"}, "priorVersion": {"href": "/mdr/adam/adamig-1-1/datastructures/ADSL/varsets/Identifier", "title": "ADSL Identifier Variables", "type": "Variable Set"}, "self": {"href": "/mdr/adam/adamig-1-2/datastructures/ADSL/varsets/Identifier", "title": "ADSL Identifier Variables", "type": "Variable Set"}}, "analysisVariables": [{"_links": {"parentDatastructure": {"href": "/mdr/adam/adamig-1-2/datastructures/ADSL", "title": "Subject-Level Analysis Dataset Structure", "type": "Data Structure"}, "parentProduct": {"href": "/mdr/adam/adamig-1-2", "title": "Analysis Data Model Implementation Guide Version 1.2", "type": "Implementation Guide"}, "parentVariableSet": {"href": "/mdr/adam/adamig-1-2/datastructures/ADSL/varsets/Identifier", "title": "ADSL Identifier Variables", "type": "Variable Set"}, "priorVersion": {"href": "/mdr/adam/adamig-1-1/datastructures/ADSL/variables/STUDYID", "title": "Study Identifier", "type": "Analysis Variable"}, "self": {"href": "/mdr/adam/adamig-1-2/datastructures/ADSL/variables/STUDYID", "title": "Study Identifier", "type": "Analysis Variable"}}, "core": "Req", "description": "DM.STUDYID", "label": "Study Identifier", "name": "STUDYID", "ordinal": "1", "simpleDatatype": "Char"}, {"_links": {"parentDatastructure": {"href": "/mdr/adam/adamig-1-2/datastructures/ADSL", "title": "Subject-Level Analysis Dataset Structure", "type": "Data Structure"}, "parentProduct": {"href": "/mdr/adam/adamig-1-2", "title": "Analysis Data Model Implementation Guide Version 1.2", "type": "Implementation Guide"}, "parentVariableSet": {"href": "/mdr/adam/adamig-1-2/datastructures/ADSL/varsets/Identifier", "title": "ADSL Identifier Variables", "type": "Variable Set"}, "priorVersion": {"href": "/mdr/adam/adamig-1-1/datastructures/ADSL/variables/USUBJID", "title": "Unique Subject Identifier", "type": "Analysis Variable"}, "self": {"href": "/mdr/adam/adamig-1-2/datastructures/ADSL/variables/USUBJID", "title": "Unique Subject Identifier", "type": "Analysis Variable"}}, "core": "Req", "description": "DM.USUBJID", "label": "Unique Subject Identifier", "name": "USUBJID", "ordinal": "2", "simpleDatatype": "Char"}, {"_links": {"parentDatastructure": {"href": "/mdr/adam/adamig-1-2/datastructures/ADSL", "title": "Subject-Level Analysis Dataset Structure", "type": "Data Structure"}, "parentProduct": {"href": "/mdr/adam/adamig-1-2", "title": "Analysis Data Model Implementation Guide Version 1.2", "type": "Implementation Guide"}, "parentVariableSet": {"href": "/mdr/adam/adamig-1-2/datastructures/ADSL/varsets/Identifier", "title": "ADSL Identifier Variables", "type": "Variable Set"}, "priorVersion": {"href": "/mdr/adam/adamig-1-1/datastructures/ADSL/variables/SUBJID", "title": "Subject Identifier for the Study", "type": "Analysis Variable"}, "self": {"href": "/mdr/adam/adamig-1-2/datastructures/ADSL/variables/SUBJID", "title": "Subject Identifier for the Study", "type": "Analysis Variable"}}, "core": "Req", "description": "DM.SUBJID. SUBJID is required in ADSL, but permissible in other datasets.", "label": "Subject Identifier for the Study", "name": "SUBJID", "ordinal": "3", "simpleDatatype": "Char"}, {"_links": {"parentDatastructure": {"href": "/mdr/adam/adamig-1-2/datastructures/ADSL", "title": "Subject-Level Analysis Dataset Structure", "type": "Data Structure"}, "parentProduct": {"href": "/mdr/adam/adamig-1-2", "title": "Analysis Data Model Implementation Guide Version 1.2", "type": "Implementation Guide"}, "parentVariableSet": {"href": "/mdr/adam/adamig-1-2/datastructures/ADSL/varsets/Identifier", "title": "ADSL Identifier Variables", "type": "Variable Set"}, "priorVersion": {"href": "/mdr/adam/adamig-1-1/datastructures/ADSL/variables/SITEID", "title": "Study Site Identifier", "type": "Analysis Variable"}, "self": {"href": "/mdr/adam/adamig-1-2/datastructures/ADSL/variables/SITEID", "title": "Study Site Identifier", "type": "Analysis Variable"}}, "core": "Req", "description": "DM.SITEID. SITEID is required in ADSL, but permissible in other datasets.", "label": "Study Site Identifier", "name": "SITEID", "ordinal": "4", "simpleDatatype": "Char"}, {"_links": {"parentDatastructure": {"href": "/mdr/adam/adamig-1-2/datastructures/ADSL", "title": "Subject-Level Analysis Dataset Structure", "type": "Data Structure"}, "parentProduct": {"href": "/mdr/adam/adamig-1-2", "title": "Analysis Data Model Implementation Guide Version 1.2", "type": "Implementation Guide"}, "parentVariableSet": {"href": "/mdr/adam/adamig-1-2/datastructures/ADSL/varsets/Identifier", "title": "ADSL Identifier Variables", "type": "Variable Set"}, "priorVersion": {"href": "/mdr/adam/adamig-1-1/datastructures/ADSL/variables/SITEGRy", "title": "Pooled Site Group y", "type": "Analysis Variable"}, "self": {"href": "/mdr/adam/adamig-1-2/datastructures/ADSL/variables/SITEGRy", "title": "Pooled Site Group y", "type": "Analysis Variable"}}, "core": "Perm", "description": "Character description of a grouping or pooling of clinical sites for analysis purposes. For example, SITEGR3 is the name of a variable containing site group (pooled site) names, where the grouping has been done according to the third site grouping algorithm, defined in variable metadata; SITEGR3 does not mean the third group of sites.", "label": "Pooled Site Group y", "name": "SITEGRy", "ordinal": "5", "simpleDatatype": "Char"}, {"_links": {"parentDatastructure": {"href": "/mdr/adam/adamig-1-2/datastructures/ADSL", "title": "Subject-Level Analysis Dataset Structure", "type": "Data Structure"}, "parentProduct": {"href": "/mdr/adam/adamig-1-2", "title": "Analysis Data Model Implementation Guide Version 1.2", "type": "Implementation Guide"}, "parentVariableSet": {"href": "/mdr/adam/adamig-1-2/datastructures/ADSL/varsets/Identifier", "title": "ADSL Identifier Variables", "type": "Variable Set"}, "priorVersion": {"href": "/mdr/adam/adamig-1-1/datastructures/ADSL/variables/SITEGRyN", "title": "Pooled Site Group y (N)", "type": "Analysis Variable"}, "self": {"href": "/mdr/adam/adamig-1-2/datastructures/ADSL/variables/SITEGRyN", "title": "Pooled Site Group y (N)", "type": "Analysis Variable"}}, "core": "Perm", "description": "Numeric representation of SITEGRy. There must be a one-to-one relationship between SITEGRyN and SITEGRy within a study. \n SITEGRyN cannot be present unless SITEGRy is also present. When SITEGRy and SITEGRyN are present, then on a given record, either both must be populated or both must be null.", "label": "Pooled Site Group y (N)", "name": "SITEGRyN", "ordinal": "6", "simpleDatatype": "Num"}, {"_links": {"parentDatastructure": {"href": "/mdr/adam/adamig-1-2/datastructures/ADSL", "title": "Subject-Level Analysis Dataset Structure", "type": "Data Structure"}, "parentProduct": {"href": "/mdr/adam/adamig-1-2", "title": "Analysis Data Model Implementation Guide Version 1.2", "type": "Implementation Guide"}, "parentVariableSet": {"href": "/mdr/adam/adamig-1-2/datastructures/ADSL/varsets/Identifier", "title": "ADSL Identifier Variables", "type": "Variable Set"}, "priorVersion": {"href": "/mdr/adam/adamig-1-1/datastructures/ADSL/variables/REGIONy", "title": "Geographic Region y", "type": "Analysis Variable"}, "self": {"href": "/mdr/adam/adamig-1-2/datastructures/ADSL/variables/REGIONy", "title": "Geographic Region y", "type": "Analysis Variable"}}, "core": "Perm", "description": "Character description of geographical region. For example, REGION1 might have values of 'Asia', 'Europe', 'North America', 'Rest of World'; REGION2 might have values of 'United States', 'Rest of World'.", "label": "Geographic Region y", "name": "REGIONy", "ordinal": "7", "simpleDatatype": "Char"}, {"_links": {"parentDatastructure": {"href": "/mdr/adam/adamig-1-2/datastructures/ADSL", "title": "Subject-Level Analysis Dataset Structure", "type": "Data Structure"}, "parentProduct": {"href": "/mdr/adam/adamig-1-2", "title": "Analysis Data Model Implementation Guide Version 1.2", "type": "Implementation Guide"}, "parentVariableSet": {"href": "/mdr/adam/adamig-1-2/datastructures/ADSL/varsets/Identifier", "title": "ADSL Identifier Variables", "type": "Variable Set"}, "priorVersion": {"href": "/mdr/adam/adamig-1-1/datastructures/ADSL/variables/REGIONyN", "title": "Geographic Region y (N)", "type": "Analysis Variable"}, "self": {"href": "/mdr/adam/adamig-1-2/datastructures/ADSL/variables/REGIONyN", "title": "Geographic Region y (N)", "type": "Analysis Variable"}}, "core": "Perm", "description": "Numeric representation of REGIONy. Orders REGIONy for analysis and reporting.There must be a one-to-one relationship between REGIONyN and REGIONy within a study. \n REGIONyN cannot be present unless REGIONy is also present. When REGIONy and REGIONyN are present, then on a given record, either both must be populated or both must be null.", "label": "Geographic Region y (N)", "name": "REGIONyN", "ordinal": "8", "simpleDatatype": "Num"}], "description": " ", "label": "ADSL Identifier Variables", "name": "Identifier", "ordinal": "1"}, {"_links": {"parentDatastructure": {"href": "/mdr/adam/adamig-1-2/datastructures/ADSL", "title": "Subject-Level Analysis Dataset Structure", "type": "Data Structure"}, "parentProduct": {"href": "/mdr/adam/adamig-1-2", "title": "Analysis Data Model Implementation Guide Version 1.2", "type": "Implementation Guide"}, "priorVersion": {"href": "/mdr/adam/adamig-1-1/datastructures/ADSL/varsets/SubjectDemographics", "title": "ADSL Subject Demographics Variables", "type": "Variable Set"}, "self": {"href": "/mdr/adam/adamig-1-2/datastructures/ADSL/varsets/SubjectDemographics", "title": "ADSL Subject Demographics Variables", "type": "Variable Set"}}, "analysisVariables": [{"_links": {"parentDatastructure": {"href": "/mdr/adam/adamig-1-2/datastructures/ADSL", "title": "Subject-Level Analysis Dataset Structure", "type": "Data Structure"}, "parentProduct": {"href": "/mdr/adam/adamig-1-2", "title": "Analysis Data Model Implementation Guide Version 1.2", "type": "Implementation Guide"}, "parentVariableSet": {"href": "/mdr/adam/adamig-1-2/datastructures/ADSL/varsets/SubjectDemographics", "title": "ADSL Subject Demographics Variables", "type": "Variable Set"}, "priorVersion": {"href": "/mdr/adam/adamig-1-1/datastructures/ADSL/variables/AGE", "title": "Age", "type": "Analysis Variable"}, "self": {"href": "/mdr/adam/adamig-1-2/datastructures/ADSL/variables/AGE", "title": "Age", "type": "Analysis Variable"}}, "core": "Req", "description": "DM.AGE. If analysis needs require a derived age that does not match DM.AGE, then AAGE must be added", "label": "Age", "name": "AGE", "ordinal": "9", "simpleDatatype": "Num"}, {"_links": {"codelist": [{"href": "/mdr/root/ct/sdtmct/codelists/C66781", "title": "Version-agnostic anchor resource for codelist C66781", "type": "Root Value Domain"}], "parentDatastructure": {"href": "/mdr/adam/adamig-1-2/datastructures/ADSL", "title": "Subject-Level Analysis Dataset Structure", "type": "Data Structure"}, "parentProduct": {"href": "/mdr/adam/adamig-1-2", "title": "Analysis Data Model Implementation Guide Version 1.2", "type": "Implementation Guide"}, "parentVariableSet": {"href": "/mdr/adam/adamig-1-2/datastructures/ADSL/varsets/SubjectDemographics", "title": "ADSL Subject Demographics Variables", "type": "Variable Set"}, "priorVersion": {"href": "/mdr/adam/adamig-1-1/datastructures/ADSL/variables/AGEU", "title": "Age Units", "type": "Analysis Variable"}, "self": {"href": "/mdr/adam/adamig-1-2/datastructures/ADSL/variables/AGEU", "title": "Age Units", "type": "Analysis Variable"}}, "codelistSubmissionValues": ["AGEU"], "core": "Req", "description": "DM.AGEU", "label": "Age Units", "name": "AGEU", "ordinal": "10", "simpleDatatype": "Char"}, {"_links": {"parentDatastructure": {"href": "/mdr/adam/adamig-1-2/datastructures/ADSL", "title": "Subject-Level Analysis Dataset Structure", "type": "Data Structure"}, "parentProduct": {"href": "/mdr/adam/adamig-1-2", "title": "Analysis Data Model Implementation Guide Version 1.2", "type": "Implementation Guide"}, "parentVariableSet": {"href": "/mdr/adam/adamig-1-2/datastructures/ADSL/varsets/SubjectDemographics", "title": "ADSL Subject Demographics Variables", "type": "Variable Set"}, "priorVersion": {"href": "/mdr/adam/adamig-1-1/datastructures/ADSL/variables/AGEGRy", "title": "Pooled Age Group y", "type": "Analysis Variable"}, "self": {"href": "/mdr/adam/adamig-1-2/datastructures/ADSL/variables/AGEGRy", "title": "Pooled Age Group y", "type": "Analysis Variable"}}, "core": "Perm", "description": "Character description of a grouping or pooling of the subject's age for analysis purposes. For example, AGEGR1 might have values of '<18', '18-65', and '>65'; AGEGR2 might have values of 'Less than 35 y old' and 'At least 35 y old'.", "label": "Pooled Age Group y", "name": "AGEGRy", "ordinal": "11", "simpleDatatype": "Char"}, {"_links": {"parentDatastructure": {"href": "/mdr/adam/adamig-1-2/datastructures/ADSL", "title": "Subject-Level Analysis Dataset Structure", "type": "Data Structure"}, "parentProduct": {"href": "/mdr/adam/adamig-1-2", "title": "Analysis Data Model Implementation Guide Version 1.2", "type": "Implementation Guide"}, "parentVariableSet": {"href": "/mdr/adam/adamig-1-2/datastructures/ADSL/varsets/SubjectDemographics", "title": "ADSL Subject Demographics Variables", "type": "Variable Set"}, "priorVersion": {"href": "/mdr/adam/adamig-1-1/datastructures/ADSL/variables/AGEGRyN", "title": "Pooled Age Group y (N)", "type": "Analysis Variable"}, "self": {"href": "/mdr/adam/adamig-1-2/datastructures/ADSL/variables/AGEGRyN", "title": "Pooled Age Group y (N)", "type": "Analysis Variable"}}, "core": "Perm", "description": "Numeric representation of AGEGRy. Orders the grouping or pooling of subject age for analysis and reporting. There must be a one-to-one relationship between AGEGRyN and AGEGRy within a study. \n AGEGRyN cannot be present unless AGEGRy is also present. When AGEGRy and AGEGRyN are present, then on a given record, either both must be populated or both must be null.", "label": "Pooled Age Group y (N)", "name": "AGEGRyN", "ordinal": "12", "simpleDatatype": "Num"}, {"_links": {"parentDatastructure": {"href": "/mdr/adam/adamig-1-2/datastructures/ADSL", "title": "Subject-Level Analysis Dataset Structure", "type": "Data Structure"}, "parentProduct": {"href": "/mdr/adam/adamig-1-2", "title": "Analysis Data Model Implementation Guide Version 1.2", "type": "Implementation Guide"}, "parentVariableSet": {"href": "/mdr/adam/adamig-1-2/datastructures/ADSL/varsets/SubjectDemographics", "title": "ADSL Subject Demographics Variables", "type": "Variable Set"}, "priorVersion": {"href": "/mdr/adam/adamig-1-1/datastructures/ADSL/variables/AAGE", "title": "Analysis Age", "type": "Analysis Variable"}, "self": {"href": "/mdr/adam/adamig-1-2/datastructures/ADSL/variables/AAGE", "title": "Analysis Age", "type": "Analysis Variable"}}, "core": "Cond", "description": "Age used for analysis that may be derived differently than DM.AGE. AAGE is required if age is calculated differently than DM.AGE.", "label": "Analysis Age", "name": "AAGE", "ordinal": "13", "simpleDatatype": "Num"}, {"_links": {"codelist": [{"href": "/mdr/root/ct/sdtmct/codelists/C66731", "title": "Version-agnostic anchor resource for codelist C66731", "type": "Root Value Domain"}], "parentDatastructure": {"href": "/mdr/adam/adamig-1-2/datastructures/ADSL", "title": "Subject-Level Analysis Dataset Structure", "type": "Data Structure"}, "parentProduct": {"href": "/mdr/adam/adamig-1-2", "title": "Analysis Data Model Implementation Guide Version 1.2", "type": "Implementation Guide"}, "parentVariableSet": {"href": "/mdr/adam/adamig-1-2/datastructures/ADSL/varsets/SubjectDemographics", "title": "ADSL Subject Demographics Variables", "type": "Variable Set"}, "priorVersion": {"href": "/mdr/adam/adamig-1-1/datastructures/ADSL/variables/SEX", "title": "Sex", "type": "Analysis Variable"}, "self": {"href": "/mdr/adam/adamig-1-2/datastructures/ADSL/variables/SEX", "title": "Sex", "type": "Analysis Variable"}}, "codelistSubmissionValues": ["SEX"], "core": "Req", "description": "DM.SEX.", "label": "Sex", "name": "SEX", "ordinal": "14", "simpleDatatype": "Char"}, {"_links": {"codelist": [{"href": "/mdr/root/ct/sdtmct/codelists/C74457", "title": "Version-agnostic anchor resource for codelist C74457", "type": "Root Value Domain"}], "parentDatastructure": {"href": "/mdr/adam/adamig-1-2/datastructures/ADSL", "title": "Subject-Level Analysis Dataset Structure", "type": "Data Structure"}, "parentProduct": {"href": "/mdr/adam/adamig-1-2", "title": "Analysis Data Model Implementation Guide Version 1.2", "type": "Implementation Guide"}, "parentVariableSet": {"href": "/mdr/adam/adamig-1-2/datastructures/ADSL/varsets/SubjectDemographics", "title": "ADSL Subject Demographics Variables", "type": "Variable Set"}, "priorVersion": {"href": "/mdr/adam/adamig-1-1/datastructures/ADSL/variables/RACE", "title": "Race", "type": "Analysis Variable"}, "self": {"href": "/mdr/adam/adamig-1-2/datastructures/ADSL/variables/RACE", "title": "Race", "type": "Analysis Variable"}}, "codelistSubmissionValues": ["RACE"], "core": "Req", "description": "DM.RACE.", "label": "Race", "name": "RACE", "ordinal": "15", "simpleDatatype": "Char"}, {"_links": {"parentDatastructure": {"href": "/mdr/adam/adamig-1-2/datastructures/ADSL", "title": "Subject-Level Analysis Dataset Structure", "type": "Data Structure"}, "parentProduct": {"href": "/mdr/adam/adamig-1-2", "title": "Analysis Data Model Implementation Guide Version 1.2", "type": "Implementation Guide"}, "parentVariableSet": {"href": "/mdr/adam/adamig-1-2/datastructures/ADSL/varsets/SubjectDemographics", "title": "ADSL Subject Demographics Variables", "type": "Variable Set"}, "priorVersion": {"href": "/mdr/adam/adamig-1-1/datastructures/ADSL/variables/RACEGRy", "title": "Pooled Race Group y", "type": "Analysis Variable"}, "self": {"href": "/mdr/adam/adamig-1-2/datastructures/ADSL/variables/RACEGRy", "title": "Pooled Race Group y", "type": "Analysis Variable"}}, "core": "Perm", "description": "Character description of a grouping or pooling of the subject's race for analysis purposes.", "label": "Pooled Race Group y", "name": "RACEGRy", "ordinal": "16", "simpleDatatype": "Char"}, {"_links": {"parentDatastructure": {"href": "/mdr/adam/adamig-1-2/datastructures/ADSL", "title": "Subject-Level Analysis Dataset Structure", "type": "Data Structure"}, "parentProduct": {"href": "/mdr/adam/adamig-1-2", "title": "Analysis Data Model Implementation Guide Version 1.2", "type": "Implementation Guide"}, "parentVariableSet": {"href": "/mdr/adam/adamig-1-2/datastructures/ADSL/varsets/SubjectDemographics", "title": "ADSL Subject Demographics Variables", "type": "Variable Set"}, "priorVersion": {"href": "/mdr/adam/adamig-1-1/datastructures/ADSL/variables/RACEGRyN", "title": "Pooled Race Group y (N)", "type": "Analysis Variable"}, "self": {"href": "/mdr/adam/adamig-1-2/datastructures/ADSL/variables/RACEGRyN", "title": "Pooled Race Group y (N)", "type": "Analysis Variable"}}, "core": "Perm", "description": "Numeric representation of RACEGRy. Orders the grouping or pooling of subject race for analysis and reporting. There must be a one-to-one relationship between RACEGRyN and RACEGRy within a study. \n RACEGRyN cannot be present unless RACEGRy is also present. When RACEGRy and RACEGRyN are present, then on a given record, either both must be populated or both must be null.", "label": "Pooled Race Group y (N)", "name": "RACEGRyN", "ordinal": "17", "simpleDatatype": "Num"}], "description": " ", "label": "ADSL Subject Demographics Variables", "name": "SubjectDemographics", "ordinal": "2"}, {"_links": {"parentDatastructure": {"href": "/mdr/adam/adamig-1-2/datastructures/ADSL", "title": "Subject-Level Analysis Dataset Structure", "type": "Data Structure"}, "parentProduct": {"href": "/mdr/adam/adamig-1-2", "title": "Analysis Data Model Implementation Guide Version 1.2", "type": "Implementation Guide"}, "priorVersion": {"href": "/mdr/adam/adamig-1-1/datastructures/ADSL/varsets/Treatment", "title": "ADSL Treatment Variables", "type": "Variable Set"}, "self": {"href": "/mdr/adam/adamig-1-2/datastructures/ADSL/varsets/Treatment", "title": "ADSL Treatment Variables", "type": "Variable Set"}}, "analysisVariables": [{"_links": {"parentDatastructure": {"href": "/mdr/adam/adamig-1-2/datastructures/ADSL", "title": "Subject-Level Analysis Dataset Structure", "type": "Data Structure"}, "parentProduct": {"href": "/mdr/adam/adamig-1-2", "title": "Analysis Data Model Implementation Guide Version 1.2", "type": "Implementation Guide"}, "parentVariableSet": {"href": "/mdr/adam/adamig-1-2/datastructures/ADSL/varsets/Treatment", "title": "ADSL Treatment Variables", "type": "Variable Set"}, "priorVersion": {"href": "/mdr/adam/adamig-1-1/datastructures/ADSL/variables/ARM", "title": "Description of Planned Arm", "type": "Analysis Variable"}, "self": {"href": "/mdr/adam/adamig-1-2/datastructures/ADSL/variables/ARM", "title": "Description of Planned Arm", "type": "Analysis Variable"}}, "core": "Req", "description": "DM.ARM", "label": "Description of Planned Arm", "name": "ARM", "ordinal": "18", "simpleDatatype": "Char"}, {"_links": {"parentDatastructure": {"href": "/mdr/adam/adamig-1-2/datastructures/ADSL", "title": "Subject-Level Analysis Dataset Structure", "type": "Data Structure"}, "parentProduct": {"href": "/mdr/adam/adamig-1-2", "title": "Analysis Data Model Implementation Guide Version 1.2", "type": "Implementation Guide"}, "parentVariableSet": {"href": "/mdr/adam/adamig-1-2/datastructures/ADSL/varsets/Treatment", "title": "ADSL Treatment Variables", "type": "Variable Set"}, "priorVersion": {"href": "/mdr/adam/adamig-1-1/datastructures/ADSL/variables/ACTARM", "title": "Description of Actual Arm", "type": "Analysis Variable"}, "self": {"href": "/mdr/adam/adamig-1-2/datastructures/ADSL/variables/ACTARM", "title": "Description of Actual Arm", "type": "Analysis Variable"}}, "core": "Perm", "description": "DM.ACTARM", "label": "Description of Actual Arm", "name": "ACTARM", "ordinal": "19", "simpleDatatype": "Char"}, {"_links": {"parentDatastructure": {"href": "/mdr/adam/adamig-1-2/datastructures/ADSL", "title": "Subject-Level Analysis Dataset Structure", "type": "Data Structure"}, "parentProduct": {"href": "/mdr/adam/adamig-1-2", "title": "Analysis Data Model Implementation Guide Version 1.2", "type": "Implementation Guide"}, "parentVariableSet": {"href": "/mdr/adam/adamig-1-2/datastructures/ADSL/varsets/Treatment", "title": "ADSL Treatment Variables", "type": "Variable Set"}, "priorVersion": {"href": "/mdr/adam/adamig-1-1/datastructures/ADSL/variables/TRTxxP", "title": "Planned Treatment for Period xx", "type": "Analysis Variable"}, "self": {"href": "/mdr/adam/adamig-1-2/datastructures/ADSL/variables/TRTxxP", "title": "Planned Treatment for Period xx", "type": "Analysis Variable"}}, "core": "Req", "description": "Subject-level identifier that represents the planned treatment for period xx. In a one-period randomized trial, TRT01P would be the treatment to which the subject was randomized. TRTxxP might be derived from the SDTM DM variable ARM. At least TRT01P is required.", "label": "Planned Treatment for Period xx", "name": "TRTxxP", "ordinal": "20", "simpleDatatype": "Char"}, {"_links": {"parentDatastructure": {"href": "/mdr/adam/adamig-1-2/datastructures/ADSL", "title": "Subject-Level Analysis Dataset Structure", "type": "Data Structure"}, "parentProduct": {"href": "/mdr/adam/adamig-1-2", "title": "Analysis Data Model Implementation Guide Version 1.2", "type": "Implementation Guide"}, "parentVariableSet": {"href": "/mdr/adam/adamig-1-2/datastructures/ADSL/varsets/Treatment", "title": "ADSL Treatment Variables", "type": "Variable Set"}, "priorVersion": {"href": "/mdr/adam/adamig-1-1/datastructures/ADSL/variables/TRTxxPN", "title": "Planned Treatment for Period xx (N)", "type": "Analysis Variable"}, "self": {"href": "/mdr/adam/adamig-1-2/datastructures/ADSL/variables/TRTxxPN", "title": "Planned Treatment for Period xx (N)", "type": "Analysis Variable"}}, "core": "Perm", "description": "Numeric representation of TRTxxP. There must be a one-to-one relationship between TRTxxPN and TRTxxP within a study. \n TRTxxPN cannot be present unless TRTxxP is also present. When TRTxxP and TRTxxPN are present, then on a given record, either both must be populated or both must be null.", "label": "Planned Treatment for Period xx (N)", "name": "TRTxxPN", "ordinal": "21", "simpleDatatype": "Num"}, {"_links": {"parentDatastructure": {"href": "/mdr/adam/adamig-1-2/datastructures/ADSL", "title": "Subject-Level Analysis Dataset Structure", "type": "Data Structure"}, "parentProduct": {"href": "/mdr/adam/adamig-1-2", "title": "Analysis Data Model Implementation Guide Version 1.2", "type": "Implementation Guide"}, "parentVariableSet": {"href": "/mdr/adam/adamig-1-2/datastructures/ADSL/varsets/Treatment", "title": "ADSL Treatment Variables", "type": "Variable Set"}, "priorVersion": {"href": "/mdr/adam/adamig-1-1/datastructures/ADSL/variables/TRTxxA", "title": "Actual Treatment for Period xx", "type": "Analysis Variable"}, "self": {"href": "/mdr/adam/adamig-1-2/datastructures/ADSL/variables/TRTxxA", "title": "Actual Treatment for Period xx", "type": "Analysis Variable"}}, "core": "Cond", "description": "Subject-level identifier that represents the actual treatment for the subject for period xx. Required when actual treatment does not match planned and there is an analysis of the data as treated.", "label": "Actual Treatment for Period xx", "name": "TRTxxA", "ordinal": "22", "simpleDatatype": "Char"}, {"_links": {"parentDatastructure": {"href": "/mdr/adam/adamig-1-2/datastructures/ADSL", "title": "Subject-Level Analysis Dataset Structure", "type": "Data Structure"}, "parentProduct": {"href": "/mdr/adam/adamig-1-2", "title": "Analysis Data Model Implementation Guide Version 1.2", "type": "Implementation Guide"}, "parentVariableSet": {"href": "/mdr/adam/adamig-1-2/datastructures/ADSL/varsets/Treatment", "title": "ADSL Treatment Variables", "type": "Variable Set"}, "priorVersion": {"href": "/mdr/adam/adamig-1-1/datastructures/ADSL/variables/TRTxxAN", "title": "Actual Treatment for Period xx (N)", "type": "Analysis Variable"}, "self": {"href": "/mdr/adam/adamig-1-2/datastructures/ADSL/variables/TRTxxAN", "title": "Actual Treatment for Period xx (N)", "type": "Analysis Variable"}}, "core": "Perm", "description": "Numeric representation of TRTxxA. There must be a one-to-one relationship between TRTxxAN and TRTxxA within a study. \n TRTxxAN cannot be present unless TRTxxA is also present. When TRTxxA and TRTxxAN are present, then on a given record, either both must be populated or both must be null.", "label": "Actual Treatment for Period xx (N)", "name": "TRTxxAN", "ordinal": "23", "simpleDatatype": "Num"}, {"_links": {"parentDatastructure": {"href": "/mdr/adam/adamig-1-2/datastructures/ADSL", "title": "Subject-Level Analysis Dataset Structure", "type": "Data Structure"}, "parentProduct": {"href": "/mdr/adam/adamig-1-2", "title": "Analysis Data Model Implementation Guide Version 1.2", "type": "Implementation Guide"}, "parentVariableSet": {"href": "/mdr/adam/adamig-1-2/datastructures/ADSL/varsets/Treatment", "title": "ADSL Treatment Variables", "type": "Variable Set"}, "priorVersion": {"href": "/mdr/adam/adamig-1-1/datastructures/ADSL/variables/TRTSEQP", "title": "Planned Sequence of Treatments", "type": "Analysis Variable"}, "self": {"href": "/mdr/adam/adamig-1-2/datastructures/ADSL/variables/TRTSEQP", "title": "Planned Sequence of Treatments", "type": "Analysis Variable"}}, "core": "Cond", "description": "Required when there is an analysis based on the sequence of treatments, for example in a crossover design. TRTSEQP is not necessarily equal to ARM, for example if ARM contains elements that are not relevant to analysis of treatments or ARM is not fully descriptive (e.g., 'GROUP 1,' 'GROUP 2'). When analyzing based on the sequence of treatments, TRTSEQP is required even if identical to ARM.", "label": "Planned Sequence of Treatments", "name": "TRTSEQP", "ordinal": "24", "simpleDatatype": "Char"}, {"_links": {"parentDatastructure": {"href": "/mdr/adam/adamig-1-2/datastructures/ADSL", "title": "Subject-Level Analysis Dataset Structure", "type": "Data Structure"}, "parentProduct": {"href": "/mdr/adam/adamig-1-2", "title": "Analysis Data Model Implementation Guide Version 1.2", "type": "Implementation Guide"}, "parentVariableSet": {"href": "/mdr/adam/adamig-1-2/datastructures/ADSL/varsets/Treatment", "title": "ADSL Treatment Variables", "type": "Variable Set"}, "priorVersion": {"href": "/mdr/adam/adamig-1-1/datastructures/ADSL/variables/TRTSEQPN", "title": "Planned Sequence of Treatments (N)", "type": "Analysis Variable"}, "self": {"href": "/mdr/adam/adamig-1-2/datastructures/ADSL/variables/TRTSEQPN", "title": "Planned Sequence of Treatments (N)", "type": "Analysis Variable"}}, "core": "Perm", "description": "Numeric representation of TRTSEQP. There must be a one-to-one relationship between TRTSEQPN and TRTSEQP within a study. \n TRTSEQPN cannot be present unless TRTSEQP is also present. When TRTSEQP and TRTSEQPN are present, then on a given record, either both must be populated or both must be null.", "label": "Planned Sequence of Treatments (N)", "name": "TRTSEQPN", "ordinal": "25", "simpleDatatype": "Num"}, {"_links": {"parentDatastructure": {"href": "/mdr/adam/adamig-1-2/datastructures/ADSL", "title": "Subject-Level Analysis Dataset Structure", "type": "Data Structure"}, "parentProduct": {"href": "/mdr/adam/adamig-1-2", "title": "Analysis Data Model Implementation Guide Version 1.2", "type": "Implementation Guide"}, "parentVariableSet": {"href": "/mdr/adam/adamig-1-2/datastructures/ADSL/varsets/Treatment", "title": "ADSL Treatment Variables", "type": "Variable Set"}, "priorVersion": {"href": "/mdr/adam/adamig-1-1/datastructures/ADSL/variables/TRTSEQA", "title": "Actual Sequence of Treatments", "type": "Analysis Variable"}, "self": {"href": "/mdr/adam/adamig-1-2/datastructures/ADSL/variables/TRTSEQA", "title": "Actual Sequence of Treatments", "type": "Analysis Variable"}}, "core": "Cond", "description": "TRTSEQA is required if a situation occurred in the conduct of the trial where a subject received a sequence of treatments other than what was planned and there is an analysis based on the sequence of treatments.", "label": "Actual Sequence of Treatments", "name": "TRTSEQA", "ordinal": "26", "simpleDatatype": "Char"}, {"_links": {"parentDatastructure": {"href": "/mdr/adam/adamig-1-2/datastructures/ADSL", "title": "Subject-Level Analysis Dataset Structure", "type": "Data Structure"}, "parentProduct": {"href": "/mdr/adam/adamig-1-2", "title": "Analysis Data Model Implementation Guide Version 1.2", "type": "Implementation Guide"}, "parentVariableSet": {"href": "/mdr/adam/adamig-1-2/datastructures/ADSL/varsets/Treatment", "title": "ADSL Treatment Variables", "type": "Variable Set"}, "priorVersion": {"href": "/mdr/adam/adamig-1-1/datastructures/ADSL/variables/TRTSEQAN", "title": "Actual Sequence of Treatments (N)", "type": "Analysis Variable"}, "self": {"href": "/mdr/adam/adamig-1-2/datastructures/ADSL/variables/TRTSEQAN", "title": "Actual Sequence of Treatments (N)", "type": "Analysis Variable"}}, "core": "Perm", "description": "Numeric representation of TRTSEQA. There must be a one-to-one relationship between TRTSEQAN and TRTSEQA within a study. \n TRTSEQAN cannot be present unless TRTSEQA is also present. When TRTSEQA and TRTSEQAN are present, then on a given record, either both must be populated or both must be null.", "label": "Actual Sequence of Treatments (N)", "name": "TRTSEQAN", "ordinal": "27", "simpleDatatype": "Num"}, {"_links": {"parentDatastructure": {"href": "/mdr/adam/adamig-1-2/datastructures/ADSL", "title": "Subject-Level Analysis Dataset Structure", "type": "Data Structure"}, "parentProduct": {"href": "/mdr/adam/adamig-1-2", "title": "Analysis Data Model Implementation Guide Version 1.2", "type": "Implementation Guide"}, "parentVariableSet": {"href": "/mdr/adam/adamig-1-2/datastructures/ADSL/varsets/Treatment", "title": "ADSL Treatment Variables", "type": "Variable Set"}, "priorVersion": {"href": "/mdr/adam/adamig-1-1/datastructures/ADSL/variables/TRxxPGy", "title": "Planned Pooled Treatment y for Period xx", "type": "Analysis Variable"}, "self": {"href": "/mdr/adam/adamig-1-2/datastructures/ADSL/variables/TRxxPGy", "title": "Planned Pooled Treatment y for Period xx", "type": "Analysis Variable"}}, "core": "Perm", "description": "Planned pooled treatment y for period xx. Useful when planned treatments (TRTxxP) in the specified period xx are pooled together for analysis according to pooling algorithm y. For example when in period 2 the first pooling algorithm dictates that all doses of Drug A (TR02PG1='All doses of Drug A') are pooled together for comparison to all doses of Drug B (TR02PG1='All doses of Drug B'). Each value of TRTxxP is pooled within at most one value of TRxxPGy.", "label": "Planned Pooled Treatment y for Period xx", "name": "TRxxPGy", "ordinal": "28", "simpleDatatype": "Char"}, {"_links": {"parentDatastructure": {"href": "/mdr/adam/adamig-1-2/datastructures/ADSL", "title": "Subject-Level Analysis Dataset Structure", "type": "Data Structure"}, "parentProduct": {"href": "/mdr/adam/adamig-1-2", "title": "Analysis Data Model Implementation Guide Version 1.2", "type": "Implementation Guide"}, "parentVariableSet": {"href": "/mdr/adam/adamig-1-2/datastructures/ADSL/varsets/Treatment", "title": "ADSL Treatment Variables", "type": "Variable Set"}, "priorVersion": {"href": "/mdr/adam/adamig-1-1/datastructures/ADSL/variables/TRxxPGyN", "title": "Planned Pooled Trt y for Period xx (N)", "type": "Analysis Variable"}, "self": {"href": "/mdr/adam/adamig-1-2/datastructures/ADSL/variables/TRxxPGyN", "title": "Planned Pooled Trt y for Period xx (N)", "type": "Analysis Variable"}}, "core": "Perm", "description": "Numeric representation of TRxxPGy. There must be a one-to-one relationship between TRxxPGyN and TRxxPGy within a study. \n TRxxPGyN cannot be present unless TRxxPGy is also present. When TRxxPGy and TRxxPGyN are present, then on a given record, either both must be populated or both must be null.", "label": "Planned Pooled Trt y for Period xx (N)", "name": "TRxxPGyN", "ordinal": "29", "simpleDatatype": "Num"}, {"_links": {"parentDatastructure": {"href": "/mdr/adam/adamig-1-2/datastructures/ADSL", "title": "Subject-Level Analysis Dataset Structure", "type": "Data Structure"}, "parentProduct": {"href": "/mdr/adam/adamig-1-2", "title": "Analysis Data Model Implementation Guide Version 1.2", "type": "Implementation Guide"}, "parentVariableSet": {"href": "/mdr/adam/adamig-1-2/datastructures/ADSL/varsets/Treatment", "title": "ADSL Treatment Variables", "type": "Variable Set"}, "priorVersion": {"href": "/mdr/adam/adamig-1-1/datastructures/ADSL/variables/TRxxAGy", "title": "Actual Pooled Treatment y for Period xx", "type": "Analysis Variable"}, "self": {"href": "/mdr/adam/adamig-1-2/datastructures/ADSL/variables/TRxxAGy", "title": "Actual Pooled Treatment y for Period xx", "type": "Analysis Variable"}}, "core": "Cond", "description": "Actual pooled treatment y for period xx. Required when TRxxPGy is present and TRTxxA is present.", "label": "Actual Pooled Treatment y for Period xx", "name": "TRxxAGy", "ordinal": "30", "simpleDatatype": "Char"}, {"_links": {"parentDatastructure": {"href": "/mdr/adam/adamig-1-2/datastructures/ADSL", "title": "Subject-Level Analysis Dataset Structure", "type": "Data Structure"}, "parentProduct": {"href": "/mdr/adam/adamig-1-2", "title": "Analysis Data Model Implementation Guide Version 1.2", "type": "Implementation Guide"}, "parentVariableSet": {"href": "/mdr/adam/adamig-1-2/datastructures/ADSL/varsets/Treatment", "title": "ADSL Treatment Variables", "type": "Variable Set"}, "priorVersion": {"href": "/mdr/adam/adamig-1-1/datastructures/ADSL/variables/TRxxAGyN", "title": "Actual Pooled Trt y for Period xx (N)", "type": "Analysis Variable"}, "self": {"href": "/mdr/adam/adamig-1-2/datastructures/ADSL/variables/TRxxAGyN", "title": "Actual Pooled Trt y for Period xx (N)", "type": "Analysis Variable"}}, "core": "Perm", "description": "Numeric representation of TRxxAGy. There must be a one-to-one relationship between TRxxAGyN and TRxxAGy within a study. \n TRxxAGyN cannot be present unless TRxxAGy is also present. When TRxxAGy and TRxxAGyN are present, then on a given record, either both must be populated or both must be null.", "label": "Actual Pooled Trt y for Period xx (N)", "name": "TRxxAGyN", "ordinal": "31", "simpleDatatype": "Num"}, {"_links": {"parentDatastructure": {"href": "/mdr/adam/adamig-1-2/datastructures/ADSL", "title": "Subject-Level Analysis Dataset Structure", "type": "Data Structure"}, "parentProduct": {"href": "/mdr/adam/adamig-1-2", "title": "Analysis Data Model Implementation Guide Version 1.2", "type": "Implementation Guide"}, "parentVariableSet": {"href": "/mdr/adam/adamig-1-2/datastructures/ADSL/varsets/Treatment", "title": "ADSL Treatment Variables", "type": "Variable Set"}, "priorVersion": {"href": "/mdr/adam/adamig-1-1/datastructures/ADSL/variables/TSEQPGy", "title": "Planned Pooled Treatment Sequence y", "type": "Analysis Variable"}, "self": {"href": "/mdr/adam/adamig-1-2/datastructures/ADSL/variables/TSEQPGy", "title": "Planned Pooled Treatment Sequence y", "type": "Analysis Variable"}}, "core": "Perm", "description": "Planned pooled treatment sequence y. Useful when planned treatment sequences (TRTSEQP) are pooled together for analysis according to pooling algorithm y. For example, this might be used in an analysis of an extension study when the analysis is based on what the subject received in the parent study as well as in the extension study.", "label": "Planned Pooled Treatment Sequence y", "name": "TSEQPGy", "ordinal": "32", "simpleDatatype": "Char"}, {"_links": {"parentDatastructure": {"href": "/mdr/adam/adamig-1-2/datastructures/ADSL", "title": "Subject-Level Analysis Dataset Structure", "type": "Data Structure"}, "parentProduct": {"href": "/mdr/adam/adamig-1-2", "title": "Analysis Data Model Implementation Guide Version 1.2", "type": "Implementation Guide"}, "parentVariableSet": {"href": "/mdr/adam/adamig-1-2/datastructures/ADSL/varsets/Treatment", "title": "ADSL Treatment Variables", "type": "Variable Set"}, "priorVersion": {"href": "/mdr/adam/adamig-1-1/datastructures/ADSL/variables/TSEQPGyN", "title": "Planned Pooled Treatment Sequence y (N)", "type": "Analysis Variable"}, "self": {"href": "/mdr/adam/adamig-1-2/datastructures/ADSL/variables/TSEQPGyN", "title": "Planned Pooled Treatment Sequence y (N)", "type": "Analysis Variable"}}, "core": "Perm", "description": "Numeric representation of TSEQPGy. There must be a one-to-one relationship between TSEQPGyN and TSEQPGy within a study. \n TSEQPGyN cannot be present unless TSEQPGy is also present. When TSEQPGy and TSEQPGyN are present, then on a given record, either both must be populated or both must be null.", "label": "Planned Pooled Treatment Sequence y (N)", "name": "TSEQPGyN", "ordinal": "33", "simpleDatatype": "Num"}, {"_links": {"parentDatastructure": {"href": "/mdr/adam/adamig-1-2/datastructures/ADSL", "title": "Subject-Level Analysis Dataset Structure", "type": "Data Structure"}, "parentProduct": {"href": "/mdr/adam/adamig-1-2", "title": "Analysis Data Model Implementation Guide Version 1.2", "type": "Implementation Guide"}, "parentVariableSet": {"href": "/mdr/adam/adamig-1-2/datastructures/ADSL/varsets/Treatment", "title": "ADSL Treatment Variables", "type": "Variable Set"}, "priorVersion": {"href": "/mdr/adam/adamig-1-1/datastructures/ADSL/variables/TSEQAGy", "title": "Actual Pooled Treatment Sequence y", "type": "Analysis Variable"}, "self": {"href": "/mdr/adam/adamig-1-2/datastructures/ADSL/variables/TSEQAGy", "title": "Actual Pooled Treatment Sequence y", "type": "Analysis Variable"}}, "core": "Cond", "description": "Actual pooled treatment sequence y. Required when TSEQPGy is present and TRTSEQA is present.", "label": "Actual Pooled Treatment Sequence y", "name": "TSEQAGy", "ordinal": "34", "simpleDatatype": "Char"}, {"_links": {"parentDatastructure": {"href": "/mdr/adam/adamig-1-2/datastructures/ADSL", "title": "Subject-Level Analysis Dataset Structure", "type": "Data Structure"}, "parentProduct": {"href": "/mdr/adam/adamig-1-2", "title": "Analysis Data Model Implementation Guide Version 1.2", "type": "Implementation Guide"}, "parentVariableSet": {"href": "/mdr/adam/adamig-1-2/datastructures/ADSL/varsets/Treatment", "title": "ADSL Treatment Variables", "type": "Variable Set"}, "priorVersion": {"href": "/mdr/adam/adamig-1-1/datastructures/ADSL/variables/TSEQAGyN", "title": "Actual Pooled Treatment Sequence y (N)", "type": "Analysis Variable"}, "self": {"href": "/mdr/adam/adamig-1-2/datastructures/ADSL/variables/TSEQAGyN", "title": "Actual Pooled Treatment Sequence y (N)", "type": "Analysis Variable"}}, "core": "Perm", "description": "Numeric representation of TSEQAGy. There must be a one-to-one relationship between TSEQAGyN and TSEQAGy within a study. \n TSEQAGyN cannot be present unless TSEQAGy is also present. When TSEQAGy and TSEQAGyN are present, then on a given record, either both must be populated or both must be null.", "label": "Actual Pooled Treatment Sequence y (N)", "name": "TSEQAGyN", "ordinal": "35", "simpleDatatype": "Num"}], "description": " ", "label": "ADSL Treatment Variables", "name": "Treatment", "ordinal": "3"}, {"_links": {"parentDatastructure": {"href": "/mdr/adam/adamig-1-2/datastructures/ADSL", "title": "Subject-Level Analysis Dataset Structure", "type": "Data Structure"}, "parentProduct": {"href": "/mdr/adam/adamig-1-2", "title": "Analysis Data Model Implementation Guide Version 1.2", "type": "Implementation Guide"}, "priorVersion": {"href": "/mdr/adam/adamig-1-1/datastructures/ADSL/varsets/Dose", "title": "ADSL Dose Variables", "type": "Variable Set"}, "self": {"href": "/mdr/adam/adamig-1-2/datastructures/ADSL/varsets/Dose", "title": "ADSL Dose Variables", "type": "Variable Set"}}, "analysisVariables": [{"_links": {"parentDatastructure": {"href": "/mdr/adam/adamig-1-2/datastructures/ADSL", "title": "Subject-Level Analysis Dataset Structure", "type": "Data Structure"}, "parentProduct": {"href": "/mdr/adam/adamig-1-2", "title": "Analysis Data Model Implementation Guide Version 1.2", "type": "Implementation Guide"}, "parentVariableSet": {"href": "/mdr/adam/adamig-1-2/datastructures/ADSL/varsets/Dose", "title": "ADSL Dose Variables", "type": "Variable Set"}, "priorVersion": {"href": "/mdr/adam/adamig-1-1/datastructures/ADSL/variables/DOSExxP", "title": "Planned Treatment Dose for Period xx", "type": "Analysis Variable"}, "self": {"href": "/mdr/adam/adamig-1-2/datastructures/ADSL/variables/DOSExxP", "title": "Planned Treatment Dose for Period xx", "type": "Analysis Variable"}}, "core": "Perm", "description": "Subject-level identifier that represents the planned treatment dosage for period xx.", "label": "Planned Treatment Dose for Period xx", "name": "DOSExxP", "ordinal": "36", "simpleDatatype": "Num"}, {"_links": {"parentDatastructure": {"href": "/mdr/adam/adamig-1-2/datastructures/ADSL", "title": "Subject-Level Analysis Dataset Structure", "type": "Data Structure"}, "parentProduct": {"href": "/mdr/adam/adamig-1-2", "title": "Analysis Data Model Implementation Guide Version 1.2", "type": "Implementation Guide"}, "parentVariableSet": {"href": "/mdr/adam/adamig-1-2/datastructures/ADSL/varsets/Dose", "title": "ADSL Dose Variables", "type": "Variable Set"}, "priorVersion": {"href": "/mdr/adam/adamig-1-1/datastructures/ADSL/variables/DOSExxA", "title": "Actual Treatment Dose for Period xx", "type": "Analysis Variable"}, "self": {"href": "/mdr/adam/adamig-1-2/datastructures/ADSL/variables/DOSExxA", "title": "Actual Treatment Dose for Period xx", "type": "Analysis Variable"}}, "core": "Perm", "description": "Subject-level identifier that represents the actual treatment dosage for period xx.", "label": "Actual Treatment Dose for Period xx", "name": "DOSExxA", "ordinal": "37", "simpleDatatype": "Num"}, {"_links": {"parentDatastructure": {"href": "/mdr/adam/adamig-1-2/datastructures/ADSL", "title": "Subject-Level Analysis Dataset Structure", "type": "Data Structure"}, "parentProduct": {"href": "/mdr/adam/adamig-1-2", "title": "Analysis Data Model Implementation Guide Version 1.2", "type": "Implementation Guide"}, "parentVariableSet": {"href": "/mdr/adam/adamig-1-2/datastructures/ADSL/varsets/Dose", "title": "ADSL Dose Variables", "type": "Variable Set"}, "priorVersion": {"href": "/mdr/adam/adamig-1-1/datastructures/ADSL/variables/DOSExxU", "title": "Units for Dose for Period xx", "type": "Analysis Variable"}, "self": {"href": "/mdr/adam/adamig-1-2/datastructures/ADSL/variables/DOSExxU", "title": "Units for Dose for Period xx", "type": "Analysis Variable"}}, "core": "Perm", "description": "The units for DOSExxP and DOSExxA. It is permissible to use suffixes such as 'P' and 'A' if needed, with labels modified accordingly.", "label": "Units for Dose for Period xx", "name": "DOSExxU", "ordinal": "38", "simpleDatatype": "Char"}], "description": " ", "label": "ADSL Dose Variables", "name": "Dose", "ordinal": "4"}, {"_links": {"parentDatastructure": {"href": "/mdr/adam/adamig-1-2/datastructures/ADSL", "title": "Subject-Level Analysis Dataset Structure", "type": "Data Structure"}, "parentProduct": {"href": "/mdr/adam/adamig-1-2", "title": "Analysis Data Model Implementation Guide Version 1.2", "type": "Implementation Guide"}, "priorVersion": {"href": "/mdr/adam/adamig-1-1/datastructures/ADSL/varsets/TreatmentTiming", "title": "ADSL Treatment Timing Variables", "type": "Variable Set"}, "self": {"href": "/mdr/adam/adamig-1-2/datastructures/ADSL/varsets/TreatmentTiming", "title": "ADSL Treatment Timing Variables", "type": "Variable Set"}}, "analysisVariables": [{"_links": {"parentDatastructure": {"href": "/mdr/adam/adamig-1-2/datastructures/ADSL", "title": "Subject-Level Analysis Dataset Structure", "type": "Data Structure"}, "parentProduct": {"href": "/mdr/adam/adamig-1-2", "title": "Analysis Data Model Implementation Guide Version 1.2", "type": "Implementation Guide"}, "parentVariableSet": {"href": "/mdr/adam/adamig-1-2/datastructures/ADSL/varsets/TreatmentTiming", "title": "ADSL Treatment Timing Variables", "type": "Variable Set"}, "priorVersion": {"href": "/mdr/adam/adamig-1-1/datastructures/ADSL/variables/TRTSDT", "title": "Date of First Exposure to Treatment", "type": "Analysis Variable"}, "self": {"href": "/mdr/adam/adamig-1-2/datastructures/ADSL/variables/TRTSDT", "title": "Date of First Exposure to Treatment", "type": "Analysis Variable"}}, "core": "Cond", "description": "Date of first exposure to treatment for a subject in a study. TRTSDT and/or TRTSDTM are required if there is an investigational product. Note that TRTSDT is not required to have the same value as the SDTM DM variable RFXSTDTC. While both of these dates reflect the concept of first exposure, the ADaM date may be derived to support the analysis which may not necessarily be the very first date in the SDTM EX domain.", "label": "Date of First Exposure to Treatment", "name": "TRTSDT", "ordinal": "39", "simpleDatatype": "Num"}, {"_links": {"parentDatastructure": {"href": "/mdr/adam/adamig-1-2/datastructures/ADSL", "title": "Subject-Level Analysis Dataset Structure", "type": "Data Structure"}, "parentProduct": {"href": "/mdr/adam/adamig-1-2", "title": "Analysis Data Model Implementation Guide Version 1.2", "type": "Implementation Guide"}, "parentVariableSet": {"href": "/mdr/adam/adamig-1-2/datastructures/ADSL/varsets/TreatmentTiming", "title": "ADSL Treatment Timing Variables", "type": "Variable Set"}, "priorVersion": {"href": "/mdr/adam/adamig-1-1/datastructures/ADSL/variables/TRTSTM", "title": "Time of First Exposure to Treatment", "type": "Analysis Variable"}, "self": {"href": "/mdr/adam/adamig-1-2/datastructures/ADSL/variables/TRTSTM", "title": "Time of First Exposure to Treatment", "type": "Analysis Variable"}}, "core": "Perm", "description": "Time of first exposure to treatment for a subject in a study.", "label": "Time of First Exposure to Treatment", "name": "TRTSTM", "ordinal": "40", "simpleDatatype": "Num"}, {"_links": {"parentDatastructure": {"href": "/mdr/adam/adamig-1-2/datastructures/ADSL", "title": "Subject-Level Analysis Dataset Structure", "type": "Data Structure"}, "parentProduct": {"href": "/mdr/adam/adamig-1-2", "title": "Analysis Data Model Implementation Guide Version 1.2", "type": "Implementation Guide"}, "parentVariableSet": {"href": "/mdr/adam/adamig-1-2/datastructures/ADSL/varsets/TreatmentTiming", "title": "ADSL Treatment Timing Variables", "type": "Variable Set"}, "priorVersion": {"href": "/mdr/adam/adamig-1-1/datastructures/ADSL/variables/TRTSDTM", "title": "Datetime of First Exposure to Treatment", "type": "Analysis Variable"}, "self": {"href": "/mdr/adam/adamig-1-2/datastructures/ADSL/variables/TRTSDTM", "title": "Datetime of First Exposure to Treatment", "type": "Analysis Variable"}}, "core": "Cond", "description": "Datetime of first exposure to treatment for a subject in a study. TRTSDT and/or TRTSDTM are required if there is an investigational product.", "label": "Datetime of First Exposure to Treatment", "name": "TRTSDTM", "ordinal": "41", "simpleDatatype": "Num"}, {"_links": {"codelist": [{"href": "/mdr/root/ct/adamct/codelists/C81223", "title": "Version-agnostic anchor resource for codelist C81223", "type": "Root Value Domain"}], "parentDatastructure": {"href": "/mdr/adam/adamig-1-2/datastructures/ADSL", "title": "Subject-Level Analysis Dataset Structure", "type": "Data Structure"}, "parentProduct": {"href": "/mdr/adam/adamig-1-2", "title": "Analysis Data Model Implementation Guide Version 1.2", "type": "Implementation Guide"}, "parentVariableSet": {"href": "/mdr/adam/adamig-1-2/datastructures/ADSL/varsets/TreatmentTiming", "title": "ADSL Treatment Timing Variables", "type": "Variable Set"}, "priorVersion": {"href": "/mdr/adam/adamig-1-1/datastructures/ADSL/variables/TRTSDTF", "title": "Date of First Exposure Imput. Flag", "type": "Analysis Variable"}, "self": {"href": "/mdr/adam/adamig-1-2/datastructures/ADSL/variables/TRTSDTF", "title": "Date of First Exposure Imput. Flag", "type": "Analysis Variable"}}, "codelistSubmissionValues": ["DATEFL"], "core": "Cond", "description": "The level of imputation of date of first exposure to treatment. If TRTSDT (or the date part of TRTSDTM) was imputed, TRTSDTF must be populated and is required. See Section 3.1.3, Date and Time Imputation Flag Variables.", "label": "Date of First Exposure Imput. Flag", "name": "TRTSDTF", "ordinal": "42", "simpleDatatype": "Char"}, {"_links": {"codelist": [{"href": "/mdr/root/ct/adamct/codelists/C81226", "title": "Version-agnostic anchor resource for codelist C81226", "type": "Root Value Domain"}], "parentDatastructure": {"href": "/mdr/adam/adamig-1-2/datastructures/ADSL", "title": "Subject-Level Analysis Dataset Structure", "type": "Data Structure"}, "parentProduct": {"href": "/mdr/adam/adamig-1-2", "title": "Analysis Data Model Implementation Guide Version 1.2", "type": "Implementation Guide"}, "parentVariableSet": {"href": "/mdr/adam/adamig-1-2/datastructures/ADSL/varsets/TreatmentTiming", "title": "ADSL Treatment Timing Variables", "type": "Variable Set"}, "priorVersion": {"href": "/mdr/adam/adamig-1-1/datastructures/ADSL/variables/TRTSTMF", "title": "Time of First Exposure Imput. Flag", "type": "Analysis Variable"}, "self": {"href": "/mdr/adam/adamig-1-2/datastructures/ADSL/variables/TRTSTMF", "title": "Time of First Exposure Imput. Flag", "type": "Analysis Variable"}}, "codelistSubmissionValues": ["TIMEFL"], "core": "Cond", "description": "The level of imputation of time of first exposure to treatment. If TRTSTM (or the time part of TRTSDTM) was imputed, TRTSTMF must be populated and is required. See Section 3.1.3, Date and Time Imputation Flag Variables.", "label": "Time of First Exposure Imput. Flag", "name": "TRTSTMF", "ordinal": "43", "simpleDatatype": "Char"}, {"_links": {"parentDatastructure": {"href": "/mdr/adam/adamig-1-2/datastructures/ADSL", "title": "Subject-Level Analysis Dataset Structure", "type": "Data Structure"}, "parentProduct": {"href": "/mdr/adam/adamig-1-2", "title": "Analysis Data Model Implementation Guide Version 1.2", "type": "Implementation Guide"}, "parentVariableSet": {"href": "/mdr/adam/adamig-1-2/datastructures/ADSL/varsets/TreatmentTiming", "title": "ADSL Treatment Timing Variables", "type": "Variable Set"}, "priorVersion": {"href": "/mdr/adam/adamig-1-1/datastructures/ADSL/variables/TRTEDT", "title": "Date of Last Exposure to Treatment", "type": "Analysis Variable"}, "self": {"href": "/mdr/adam/adamig-1-2/datastructures/ADSL/variables/TRTEDT", "title": "Date of Last Exposure to Treatment", "type": "Analysis Variable"}}, "core": "Cond", "description": "Date of last exposure to treatment for a subject in a study. TRTEDT and/or TRTEDTM are required if there is an investigational product. Note that TRTEDT is not required to have the same value as the SDTM DM variable RFXENDTC. While both of these dates reflect the concept of last exposure, the ADaM date may be derived to support the analysis which may not necessarily be the very last date in the SDTM EX domain.", "label": "Date of Last Exposure to Treatment", "name": "TRTEDT", "ordinal": "44", "simpleDatatype": "Num"}, {"_links": {"parentDatastructure": {"href": "/mdr/adam/adamig-1-2/datastructures/ADSL", "title": "Subject-Level Analysis Dataset Structure", "type": "Data Structure"}, "parentProduct": {"href": "/mdr/adam/adamig-1-2", "title": "Analysis Data Model Implementation Guide Version 1.2", "type": "Implementation Guide"}, "parentVariableSet": {"href": "/mdr/adam/adamig-1-2/datastructures/ADSL/varsets/TreatmentTiming", "title": "ADSL Treatment Timing Variables", "type": "Variable Set"}, "priorVersion": {"href": "/mdr/adam/adamig-1-1/datastructures/ADSL/variables/TRTETM", "title": "Time of Last Exposure to Treatment", "type": "Analysis Variable"}, "self": {"href": "/mdr/adam/adamig-1-2/datastructures/ADSL/variables/TRTETM", "title": "Time of Last Exposure to Treatment", "type": "Analysis Variable"}}, "core": "Perm", "description": "Time of last exposure to treatment for a subject in a study.", "label": "Time of Last Exposure to Treatment", "name": "TRTETM", "ordinal": "45", "simpleDatatype": "Num"}, {"_links": {"parentDatastructure": {"href": "/mdr/adam/adamig-1-2/datastructures/ADSL", "title": "Subject-Level Analysis Dataset Structure", "type": "Data Structure"}, "parentProduct": {"href": "/mdr/adam/adamig-1-2", "title": "Analysis Data Model Implementation Guide Version 1.2", "type": "Implementation Guide"}, "parentVariableSet": {"href": "/mdr/adam/adamig-1-2/datastructures/ADSL/varsets/TreatmentTiming", "title": "ADSL Treatment Timing Variables", "type": "Variable Set"}, "priorVersion": {"href": "/mdr/adam/adamig-1-1/datastructures/ADSL/variables/TRTEDTM", "title": "Datetime of Last Exposure to Treatment", "type": "Analysis Variable"}, "self": {"href": "/mdr/adam/adamig-1-2/datastructures/ADSL/variables/TRTEDTM", "title": "Datetime of Last Exposure to Treatment", "type": "Analysis Variable"}}, "core": "Cond", "description": "Datetime of last exposure to treatment for a subject in a study. TRTEDT and/or TRTEDTM are required if there is an investigational product.", "label": "Datetime of Last Exposure to Treatment", "name": "TRTEDTM", "ordinal": "46", "simpleDatatype": "Num"}, {"_links": {"codelist": [{"href": "/mdr/root/ct/adamct/codelists/C81223", "title": "Version-agnostic anchor resource for codelist C81223", "type": "Root Value Domain"}], "parentDatastructure": {"href": "/mdr/adam/adamig-1-2/datastructures/ADSL", "title": "Subject-Level Analysis Dataset Structure", "type": "Data Structure"}, "parentProduct": {"href": "/mdr/adam/adamig-1-2", "title": "Analysis Data Model Implementation Guide Version 1.2", "type": "Implementation Guide"}, "parentVariableSet": {"href": "/mdr/adam/adamig-1-2/datastructures/ADSL/varsets/TreatmentTiming", "title": "ADSL Treatment Timing Variables", "type": "Variable Set"}, "priorVersion": {"href": "/mdr/adam/adamig-1-1/datastructures/ADSL/variables/TRTEDTF", "title": "Date of Last Exposure Imput. Flag", "type": "Analysis Variable"}, "self": {"href": "/mdr/adam/adamig-1-2/datastructures/ADSL/variables/TRTEDTF", "title": "Date of Last Exposure Imput. Flag", "type": "Analysis Variable"}}, "codelistSubmissionValues": ["DATEFL"], "core": "Cond", "description": "The level of imputation of date of last exposure to treatment. If TRTEDT (or the date part of TRTEDTM) was imputed, TRTEDTF must be populated and is required. See Section 3.1.3, Date and Time Imputation Flag Variables.", "label": "Date of Last Exposure Imput. Flag", "name": "TRTEDTF", "ordinal": "47", "simpleDatatype": "Char"}, {"_links": {"codelist": [{"href": "/mdr/root/ct/adamct/codelists/C81226", "title": "Version-agnostic anchor resource for codelist C81226", "type": "Root Value Domain"}], "parentDatastructure": {"href": "/mdr/adam/adamig-1-2/datastructures/ADSL", "title": "Subject-Level Analysis Dataset Structure", "type": "Data Structure"}, "parentProduct": {"href": "/mdr/adam/adamig-1-2", "title": "Analysis Data Model Implementation Guide Version 1.2", "type": "Implementation Guide"}, "parentVariableSet": {"href": "/mdr/adam/adamig-1-2/datastructures/ADSL/varsets/TreatmentTiming", "title": "ADSL Treatment Timing Variables", "type": "Variable Set"}, "priorVersion": {"href": "/mdr/adam/adamig-1-1/datastructures/ADSL/variables/TRTETMF", "title": "Time of Last Exposure Imput. Flag", "type": "Analysis Variable"}, "self": {"href": "/mdr/adam/adamig-1-2/datastructures/ADSL/variables/TRTETMF", "title": "Time of Last Exposure Imput. Flag", "type": "Analysis Variable"}}, "codelistSubmissionValues": ["TIMEFL"], "core": "Cond", "description": "The level of imputation of time of last exposure to treatment. If TRTETM (or the time part of TRTEDTM) was imputed, TRTETMF must be populated and is required. See Section 3.1.3, Date and Time Imputation Flag Variables.", "label": "Time of Last Exposure Imput. Flag", "name": "TRTETMF", "ordinal": "48", "simpleDatatype": "Char"}, {"_links": {"parentDatastructure": {"href": "/mdr/adam/adamig-1-2/datastructures/ADSL", "title": "Subject-Level Analysis Dataset Structure", "type": "Data Structure"}, "parentProduct": {"href": "/mdr/adam/adamig-1-2", "title": "Analysis Data Model Implementation Guide Version 1.2", "type": "Implementation Guide"}, "parentVariableSet": {"href": "/mdr/adam/adamig-1-2/datastructures/ADSL/varsets/TreatmentTiming", "title": "ADSL Treatment Timing Variables", "type": "Variable Set"}, "priorVersion": {"href": "/mdr/adam/adamig-1-1/datastructures/ADSL/variables/TRxxSDT", "title": "Date of First Exposure in Period xx", "type": "Analysis Variable"}, "self": {"href": "/mdr/adam/adamig-1-2/datastructures/ADSL/variables/TRxxSDT", "title": "Date of First Exposure in Period xx", "type": "Analysis Variable"}}, "core": "Cond", "description": "Date of first exposure to treatment in period xx. TRxxSDT and/or TRxxSDTM are only required in trial designs where multiple treatment periods are defined (i.e., required when there is a TRTxxP other than TRT01P). Examples include crossover designs or designs where multiple periods exist for the same treatment.", "label": "Date of First Exposure in Period xx", "name": "TRxxSDT", "ordinal": "49", "simpleDatatype": "Num"}, {"_links": {"parentDatastructure": {"href": "/mdr/adam/adamig-1-2/datastructures/ADSL", "title": "Subject-Level Analysis Dataset Structure", "type": "Data Structure"}, "parentProduct": {"href": "/mdr/adam/adamig-1-2", "title": "Analysis Data Model Implementation Guide Version 1.2", "type": "Implementation Guide"}, "parentVariableSet": {"href": "/mdr/adam/adamig-1-2/datastructures/ADSL/varsets/TreatmentTiming", "title": "ADSL Treatment Timing Variables", "type": "Variable Set"}, "priorVersion": {"href": "/mdr/adam/adamig-1-1/datastructures/ADSL/variables/TRxxSTM", "title": "Time of First Exposure in Period xx", "type": "Analysis Variable"}, "self": {"href": "/mdr/adam/adamig-1-2/datastructures/ADSL/variables/TRxxSTM", "title": "Time of First Exposure in Period xx", "type": "Analysis Variable"}}, "core": "Cond", "description": "Starting time of exposure to treatment in period xx. TRxxSTM and/or TRxxSDTM are only required in trial designs where starting time is important to the analysis and multiple treatment periods are defined (i.e., required when there is a TRTxxP other than TRT01P).", "label": "Time of First Exposure in Period xx", "name": "TRxxSTM", "ordinal": "50", "simpleDatatype": "Num"}, {"_links": {"parentDatastructure": {"href": "/mdr/adam/adamig-1-2/datastructures/ADSL", "title": "Subject-Level Analysis Dataset Structure", "type": "Data Structure"}, "parentProduct": {"href": "/mdr/adam/adamig-1-2", "title": "Analysis Data Model Implementation Guide Version 1.2", "type": "Implementation Guide"}, "parentVariableSet": {"href": "/mdr/adam/adamig-1-2/datastructures/ADSL/varsets/TreatmentTiming", "title": "ADSL Treatment Timing Variables", "type": "Variable Set"}, "priorVersion": {"href": "/mdr/adam/adamig-1-1/datastructures/ADSL/variables/TRxxSDTM", "title": "Datetime of First Exposure in Period xx", "type": "Analysis Variable"}, "self": {"href": "/mdr/adam/adamig-1-2/datastructures/ADSL/variables/TRxxSDTM", "title": "Datetime of First Exposure in Period xx", "type": "Analysis Variable"}}, "core": "Cond", "description": "Datetime of first exposure to treatment in period xx. TRxxSDTM is only required in trial designs where multiple treatment periods are defined (i.e., required when there is a TRTxxP other than TRT01P).", "label": "Datetime of First Exposure in Period xx", "name": "TRxxSDTM", "ordinal": "51", "simpleDatatype": "Num"}, {"_links": {"codelist": [{"href": "/mdr/root/ct/adamct/codelists/C81223", "title": "Version-agnostic anchor resource for codelist C81223", "type": "Root Value Domain"}], "parentDatastructure": {"href": "/mdr/adam/adamig-1-2/datastructures/ADSL", "title": "Subject-Level Analysis Dataset Structure", "type": "Data Structure"}, "parentProduct": {"href": "/mdr/adam/adamig-1-2", "title": "Analysis Data Model Implementation Guide Version 1.2", "type": "Implementation Guide"}, "parentVariableSet": {"href": "/mdr/adam/adamig-1-2/datastructures/ADSL/varsets/TreatmentTiming", "title": "ADSL Treatment Timing Variables", "type": "Variable Set"}, "priorVersion": {"href": "/mdr/adam/adamig-1-1/datastructures/ADSL/variables/TRxxSDTF", "title": "Date 1st Exposure Period xx Imput. Flag", "type": "Analysis Variable"}, "self": {"href": "/mdr/adam/adamig-1-2/datastructures/ADSL/variables/TRxxSDTF", "title": "Date 1st Exposure Period xx Imput. Flag", "type": "Analysis Variable"}}, "codelistSubmissionValues": ["DATEFL"], "core": "Cond", "description": "The level of imputation of date of first exposure to treatment in period xx. If TRxxSDT (or the date part of TRxxSDTM) was imputed, TRxxSDTF must be populated and is required. See Section 3.1.3, Date and Time Imputation Flag Variables.", "label": "Date 1st Exposure Period xx Imput. Flag", "name": "TRxxSDTF", "ordinal": "52", "simpleDatatype": "Char"}, {"_links": {"codelist": [{"href": "/mdr/root/ct/adamct/codelists/C81226", "title": "Version-agnostic anchor resource for codelist C81226", "type": "Root Value Domain"}], "parentDatastructure": {"href": "/mdr/adam/adamig-1-2/datastructures/ADSL", "title": "Subject-Level Analysis Dataset Structure", "type": "Data Structure"}, "parentProduct": {"href": "/mdr/adam/adamig-1-2", "title": "Analysis Data Model Implementation Guide Version 1.2", "type": "Implementation Guide"}, "parentVariableSet": {"href": "/mdr/adam/adamig-1-2/datastructures/ADSL/varsets/TreatmentTiming", "title": "ADSL Treatment Timing Variables", "type": "Variable Set"}, "priorVersion": {"href": "/mdr/adam/adamig-1-1/datastructures/ADSL/variables/TRxxSTMF", "title": "Time 1st Exposure Period xx Imput. Flag", "type": "Analysis Variable"}, "self": {"href": "/mdr/adam/adamig-1-2/datastructures/ADSL/variables/TRxxSTMF", "title": "Time 1st Exposure Period xx Imput. Flag", "type": "Analysis Variable"}}, "codelistSubmissionValues": ["TIMEFL"], "core": "Cond", "description": "The level of imputation of time of first exposure to treatment in period xx. If TRxxSTM (or the time part of TRxxSDTM) was imputed, TRxxSTMF must be populated and is required. See Section 3.1.3, Date and Time Imputation Flag Variables.", "label": "Time 1st Exposure Period xx Imput. Flag", "name": "TRxxSTMF", "ordinal": "53", "simpleDatatype": "Char"}, {"_links": {"parentDatastructure": {"href": "/mdr/adam/adamig-1-2/datastructures/ADSL", "title": "Subject-Level Analysis Dataset Structure", "type": "Data Structure"}, "parentProduct": {"href": "/mdr/adam/adamig-1-2", "title": "Analysis Data Model Implementation Guide Version 1.2", "type": "Implementation Guide"}, "parentVariableSet": {"href": "/mdr/adam/adamig-1-2/datastructures/ADSL/varsets/TreatmentTiming", "title": "ADSL Treatment Timing Variables", "type": "Variable Set"}, "priorVersion": {"href": "/mdr/adam/adamig-1-1/datastructures/ADSL/variables/TRxxEDT", "title": "Date of Last Exposure in Period xx", "type": "Analysis Variable"}, "self": {"href": "/mdr/adam/adamig-1-2/datastructures/ADSL/variables/TRxxEDT", "title": "Date of Last Exposure in Period xx", "type": "Analysis Variable"}}, "core": "Cond", "description": "Date of last exposure to treatment in period xx. TRxxEDT and/or TRxxEDTM are only required in trial designs where multiple treatment periods are defined (i.e., required when there is a TRTxxP other than TRT01P).", "label": "Date of Last Exposure in Period xx", "name": "TRxxEDT", "ordinal": "54", "simpleDatatype": "Num"}, {"_links": {"parentDatastructure": {"href": "/mdr/adam/adamig-1-2/datastructures/ADSL", "title": "Subject-Level Analysis Dataset Structure", "type": "Data Structure"}, "parentProduct": {"href": "/mdr/adam/adamig-1-2", "title": "Analysis Data Model Implementation Guide Version 1.2", "type": "Implementation Guide"}, "parentVariableSet": {"href": "/mdr/adam/adamig-1-2/datastructures/ADSL/varsets/TreatmentTiming", "title": "ADSL Treatment Timing Variables", "type": "Variable Set"}, "priorVersion": {"href": "/mdr/adam/adamig-1-1/datastructures/ADSL/variables/TRxxETM", "title": "Time of Last Exposure in Period xx", "type": "Analysis Variable"}, "self": {"href": "/mdr/adam/adamig-1-2/datastructures/ADSL/variables/TRxxETM", "title": "Time of Last Exposure in Period xx", "type": "Analysis Variable"}}, "core": "Cond", "description": "Ending time of exposure to treatment in period xx. TRxxETM and/or TRxxEDTM are only required in trial designs where ending time is important to the analysis and multiple treatment periods are defined (i.e., required when there is a TRTxxP other than TRT01P).", "label": "Time of Last Exposure in Period xx", "name": "TRxxETM", "ordinal": "55", "simpleDatatype": "Num"}, {"_links": {"parentDatastructure": {"href": "/mdr/adam/adamig-1-2/datastructures/ADSL", "title": "Subject-Level Analysis Dataset Structure", "type": "Data Structure"}, "parentProduct": {"href": "/mdr/adam/adamig-1-2", "title": "Analysis Data Model Implementation Guide Version 1.2", "type": "Implementation Guide"}, "parentVariableSet": {"href": "/mdr/adam/adamig-1-2/datastructures/ADSL/varsets/TreatmentTiming", "title": "ADSL Treatment Timing Variables", "type": "Variable Set"}, "priorVersion": {"href": "/mdr/adam/adamig-1-1/datastructures/ADSL/variables/TRxxEDTM", "title": "Datetime of Last Exposure in Period xx", "type": "Analysis Variable"}, "self": {"href": "/mdr/adam/adamig-1-2/datastructures/ADSL/variables/TRxxEDTM", "title": "Datetime of Last Exposure in Period xx", "type": "Analysis Variable"}}, "core": "Cond", "description": "Datetime of last exposure to treatment in period xx. TRxxEDTM is only required in trial designs where multiple treatment periods are defined (i.e., required when there is a TRTxxP other than TRT01P).", "label": "Datetime of Last Exposure in Period xx", "name": "TRxxEDTM", "ordinal": "56", "simpleDatatype": "Num"}, {"_links": {"codelist": [{"href": "/mdr/root/ct/adamct/codelists/C81223", "title": "Version-agnostic anchor resource for codelist C81223", "type": "Root Value Domain"}], "parentDatastructure": {"href": "/mdr/adam/adamig-1-2/datastructures/ADSL", "title": "Subject-Level Analysis Dataset Structure", "type": "Data Structure"}, "parentProduct": {"href": "/mdr/adam/adamig-1-2", "title": "Analysis Data Model Implementation Guide Version 1.2", "type": "Implementation Guide"}, "parentVariableSet": {"href": "/mdr/adam/adamig-1-2/datastructures/ADSL/varsets/TreatmentTiming", "title": "ADSL Treatment Timing Variables", "type": "Variable Set"}, "priorVersion": {"href": "/mdr/adam/adamig-1-1/datastructures/ADSL/variables/TRxxEDTF", "title": "Date Last Exposure Period xx Imput. Flag", "type": "Analysis Variable"}, "self": {"href": "/mdr/adam/adamig-1-2/datastructures/ADSL/variables/TRxxEDTF", "title": "Date Last Exposure Period xx Imput. Flag", "type": "Analysis Variable"}}, "codelistSubmissionValues": ["DATEFL"], "core": "Cond", "description": "The level of imputation of date of last exposure to treatment in period xx. If TRxxEDT (or the date part of TRxxEDTM) was imputed, TRxxEDTF must be populated and is required. See Section 3.1.3, Date and Time Imputation Flag Variables.", "label": "Date Last Exposure Period xx Imput. Flag", "name": "TRxxEDTF", "ordinal": "57", "simpleDatatype": "Char"}, {"_links": {"codelist": [{"href": "/mdr/root/ct/adamct/codelists/C81226", "title": "Version-agnostic anchor resource for codelist C81226", "type": "Root Value Domain"}], "parentDatastructure": {"href": "/mdr/adam/adamig-1-2/datastructures/ADSL", "title": "Subject-Level Analysis Dataset Structure", "type": "Data Structure"}, "parentProduct": {"href": "/mdr/adam/adamig-1-2", "title": "Analysis Data Model Implementation Guide Version 1.2", "type": "Implementation Guide"}, "parentVariableSet": {"href": "/mdr/adam/adamig-1-2/datastructures/ADSL/varsets/TreatmentTiming", "title": "ADSL Treatment Timing Variables", "type": "Variable Set"}, "priorVersion": {"href": "/mdr/adam/adamig-1-1/datastructures/ADSL/variables/TRxxETMF", "title": "Time Last Exposure Period xx Imput. Flag", "type": "Analysis Variable"}, "self": {"href": "/mdr/adam/adamig-1-2/datastructures/ADSL/variables/TRxxETMF", "title": "Time Last Exposure Period xx Imput. Flag", "type": "Analysis Variable"}}, "codelistSubmissionValues": ["TIMEFL"], "core": "Cond", "description": "The level of imputation of time of last exposure to treatment in period xx. If TRxxETM (or the time part of TRxxEDTM) was imputed, TRxxETMF must be populated and is required. See Section 3.1.3, Date and Time Imputation Flag Variables.", "label": "Time Last Exposure Period xx Imput. Flag", "name": "TRxxETMF", "ordinal": "58", "simpleDatatype": "Char"}], "description": " ", "label": "ADSL Treatment Timing Variables", "name": "TreatmentTiming", "ordinal": "5"}, {"_links": {"parentDatastructure": {"href": "/mdr/adam/adamig-1-2/datastructures/ADSL", "title": "Subject-Level Analysis Dataset Structure", "type": "Data Structure"}, "parentProduct": {"href": "/mdr/adam/adamig-1-2", "title": "Analysis Data Model Implementation Guide Version 1.2", "type": "Implementation Guide"}, "priorVersion": {"href": "/mdr/adam/adamig-1-1/datastructures/ADSL/varsets/PeriodPhaseTiming", "title": "Subject-Level Period, Subperiod, and Phase Timing Variables", "type": "Variable Set"}, "self": {"href": "/mdr/adam/adamig-1-2/datastructures/ADSL/varsets/PeriodSubperiodPhaseTiming", "title": "ADSL Period Subperiod and Phase Timing Variables", "type": "Variable Set"}}, "analysisVariables": [{"_links": {"parentDatastructure": {"href": "/mdr/adam/adamig-1-2/datastructures/ADSL", "title": "Subject-Level Analysis Dataset Structure", "type": "Data Structure"}, "parentProduct": {"href": "/mdr/adam/adamig-1-2", "title": "Analysis Data Model Implementation Guide Version 1.2", "type": "Implementation Guide"}, "parentVariableSet": {"href": "/mdr/adam/adamig-1-2/datastructures/ADSL/varsets/PeriodSubperiodPhaseTiming", "title": "ADSL Period Subperiod and Phase Timing Variables", "type": "Variable Set"}, "priorVersion": {"href": "/mdr/adam/adamig-1-1/datastructures/ADSL/variables/APxxSDT", "title": "Period xx Start Date", "type": "Analysis Variable"}, "self": {"href": "/mdr/adam/adamig-1-2/datastructures/ADSL/variables/APxxSDT", "title": "Period xx Start Date", "type": "Analysis Variable"}}, "core": "Perm", "description": "The starting date of period xx.", "label": "Period xx Start Date", "name": "APxxSDT", "ordinal": "59", "simpleDatatype": "Num"}, {"_links": {"parentDatastructure": {"href": "/mdr/adam/adamig-1-2/datastructures/ADSL", "title": "Subject-Level Analysis Dataset Structure", "type": "Data Structure"}, "parentProduct": {"href": "/mdr/adam/adamig-1-2", "title": "Analysis Data Model Implementation Guide Version 1.2", "type": "Implementation Guide"}, "parentVariableSet": {"href": "/mdr/adam/adamig-1-2/datastructures/ADSL/varsets/PeriodSubperiodPhaseTiming", "title": "ADSL Period Subperiod and Phase Timing Variables", "type": "Variable Set"}, "priorVersion": {"href": "/mdr/adam/adamig-1-1/datastructures/ADSL/variables/APxxSTM", "title": "Period xx Start Time", "type": "Analysis Variable"}, "self": {"href": "/mdr/adam/adamig-1-2/datastructures/ADSL/variables/APxxSTM", "title": "Period xx Start Time", "type": "Analysis Variable"}}, "core": "Perm", "description": "The starting time of period xx.", "label": "Period xx Start Time", "name": "APxxSTM", "ordinal": "60", "simpleDatatype": "Num"}, {"_links": {"parentDatastructure": {"href": "/mdr/adam/adamig-1-2/datastructures/ADSL", "title": "Subject-Level Analysis Dataset Structure", "type": "Data Structure"}, "parentProduct": {"href": "/mdr/adam/adamig-1-2", "title": "Analysis Data Model Implementation Guide Version 1.2", "type": "Implementation Guide"}, "parentVariableSet": {"href": "/mdr/adam/adamig-1-2/datastructures/ADSL/varsets/PeriodSubperiodPhaseTiming", "title": "ADSL Period Subperiod and Phase Timing Variables", "type": "Variable Set"}, "priorVersion": {"href": "/mdr/adam/adamig-1-1/datastructures/ADSL/variables/APxxSDTM", "title": "Period xx Start Datetime", "type": "Analysis Variable"}, "self": {"href": "/mdr/adam/adamig-1-2/datastructures/ADSL/variables/APxxSDTM", "title": "Period xx Start Datetime", "type": "Analysis Variable"}}, "core": "Perm", "description": "The starting datetime of period xx.", "label": "Period xx Start Datetime", "name": "APxxSDTM", "ordinal": "61", "simpleDatatype": "Num"}, {"_links": {"codelist": [{"href": "/mdr/root/ct/adamct/codelists/C81223", "title": "Version-agnostic anchor resource for codelist C81223", "type": "Root Value Domain"}], "parentDatastructure": {"href": "/mdr/adam/adamig-1-2/datastructures/ADSL", "title": "Subject-Level Analysis Dataset Structure", "type": "Data Structure"}, "parentProduct": {"href": "/mdr/adam/adamig-1-2", "title": "Analysis Data Model Implementation Guide Version 1.2", "type": "Implementation Guide"}, "parentVariableSet": {"href": "/mdr/adam/adamig-1-2/datastructures/ADSL/varsets/PeriodSubperiodPhaseTiming", "title": "ADSL Period Subperiod and Phase Timing Variables", "type": "Variable Set"}, "priorVersion": {"href": "/mdr/adam/adamig-1-1/datastructures/ADSL/variables/APxxSDTF", "title": "Period xx Start Date Imput. Flag", "type": "Analysis Variable"}, "self": {"href": "/mdr/adam/adamig-1-2/datastructures/ADSL/variables/APxxSDTF", "title": "Period xx Start Date Imput. Flag", "type": "Analysis Variable"}}, "codelistSubmissionValues": ["DATEFL"], "core": "Cond", "description": "The level of imputation of period xx start date. See Section 3.1.3, Date and Time Imputation Flag Variables.", "label": "Period xx Start Date Imput. Flag", "name": "APxxSDTF", "ordinal": "62", "simpleDatatype": "Char"}, {"_links": {"codelist": [{"href": "/mdr/root/ct/adamct/codelists/C81226", "title": "Version-agnostic anchor resource for codelist C81226", "type": "Root Value Domain"}], "parentDatastructure": {"href": "/mdr/adam/adamig-1-2/datastructures/ADSL", "title": "Subject-Level Analysis Dataset Structure", "type": "Data Structure"}, "parentProduct": {"href": "/mdr/adam/adamig-1-2", "title": "Analysis Data Model Implementation Guide Version 1.2", "type": "Implementation Guide"}, "parentVariableSet": {"href": "/mdr/adam/adamig-1-2/datastructures/ADSL/varsets/PeriodSubperiodPhaseTiming", "title": "ADSL Period Subperiod and Phase Timing Variables", "type": "Variable Set"}, "priorVersion": {"href": "/mdr/adam/adamig-1-1/datastructures/ADSL/variables/APxxSTMF", "title": "Period xx Start Time Imput. Flag", "type": "Analysis Variable"}, "self": {"href": "/mdr/adam/adamig-1-2/datastructures/ADSL/variables/APxxSTMF", "title": "Period xx Start Time Imput. Flag", "type": "Analysis Variable"}}, "codelistSubmissionValues": ["TIMEFL"], "core": "Cond", "description": "The level of imputation of period xx start time. See Section 3.1.3, Date and Time Imputation Flag Variables.", "label": "Period xx Start Time Imput. Flag", "name": "APxxSTMF", "ordinal": "63", "simpleDatatype": "Char"}, {"_links": {"parentDatastructure": {"href": "/mdr/adam/adamig-1-2/datastructures/ADSL", "title": "Subject-Level Analysis Dataset Structure", "type": "Data Structure"}, "parentProduct": {"href": "/mdr/adam/adamig-1-2", "title": "Analysis Data Model Implementation Guide Version 1.2", "type": "Implementation Guide"}, "parentVariableSet": {"href": "/mdr/adam/adamig-1-2/datastructures/ADSL/varsets/PeriodSubperiodPhaseTiming", "title": "ADSL Period Subperiod and Phase Timing Variables", "type": "Variable Set"}, "priorVersion": {"href": "/mdr/adam/adamig-1-1/datastructures/ADSL/variables/APxxEDT", "title": "Period xx End Date", "type": "Analysis Variable"}, "self": {"href": "/mdr/adam/adamig-1-2/datastructures/ADSL/variables/APxxEDT", "title": "Period xx End Date", "type": "Analysis Variable"}}, "core": "Perm", "description": "The ending date of period xx.", "label": "Period xx End Date", "name": "APxxEDT", "ordinal": "64", "simpleDatatype": "Num"}, {"_links": {"parentDatastructure": {"href": "/mdr/adam/adamig-1-2/datastructures/ADSL", "title": "Subject-Level Analysis Dataset Structure", "type": "Data Structure"}, "parentProduct": {"href": "/mdr/adam/adamig-1-2", "title": "Analysis Data Model Implementation Guide Version 1.2", "type": "Implementation Guide"}, "parentVariableSet": {"href": "/mdr/adam/adamig-1-2/datastructures/ADSL/varsets/PeriodSubperiodPhaseTiming", "title": "ADSL Period Subperiod and Phase Timing Variables", "type": "Variable Set"}, "priorVersion": {"href": "/mdr/adam/adamig-1-1/datastructures/ADSL/variables/APxxETM", "title": "Period xx End Time", "type": "Analysis Variable"}, "self": {"href": "/mdr/adam/adamig-1-2/datastructures/ADSL/variables/APxxETM", "title": "Period xx End Time", "type": "Analysis Variable"}}, "core": "Perm", "description": "The ending time of period xx.", "label": "Period xx End Time", "name": "APxxETM", "ordinal": "65", "simpleDatatype": "Num"}, {"_links": {"parentDatastructure": {"href": "/mdr/adam/adamig-1-2/datastructures/ADSL", "title": "Subject-Level Analysis Dataset Structure", "type": "Data Structure"}, "parentProduct": {"href": "/mdr/adam/adamig-1-2", "title": "Analysis Data Model Implementation Guide Version 1.2", "type": "Implementation Guide"}, "parentVariableSet": {"href": "/mdr/adam/adamig-1-2/datastructures/ADSL/varsets/PeriodSubperiodPhaseTiming", "title": "ADSL Period Subperiod and Phase Timing Variables", "type": "Variable Set"}, "priorVersion": {"href": "/mdr/adam/adamig-1-1/datastructures/ADSL/variables/APxxEDTM", "title": "Period xx End Datetime", "type": "Analysis Variable"}, "self": {"href": "/mdr/adam/adamig-1-2/datastructures/ADSL/variables/APxxEDTM", "title": "Period xx End Datetime", "type": "Analysis Variable"}}, "core": "Perm", "description": "The ending datetime of period xx.", "label": "Period xx End Datetime", "name": "APxxEDTM", "ordinal": "66", "simpleDatatype": "Num"}, {"_links": {"codelist": [{"href": "/mdr/root/ct/adamct/codelists/C81223", "title": "Version-agnostic anchor resource for codelist C81223", "type": "Root Value Domain"}], "parentDatastructure": {"href": "/mdr/adam/adamig-1-2/datastructures/ADSL", "title": "Subject-Level Analysis Dataset Structure", "type": "Data Structure"}, "parentProduct": {"href": "/mdr/adam/adamig-1-2", "title": "Analysis Data Model Implementation Guide Version 1.2", "type": "Implementation Guide"}, "parentVariableSet": {"href": "/mdr/adam/adamig-1-2/datastructures/ADSL/varsets/PeriodSubperiodPhaseTiming", "title": "ADSL Period Subperiod and Phase Timing Variables", "type": "Variable Set"}, "priorVersion": {"href": "/mdr/adam/adamig-1-1/datastructures/ADSL/variables/APxxEDTF", "title": "Period xx End Date Imput. Flag", "type": "Analysis Variable"}, "self": {"href": "/mdr/adam/adamig-1-2/datastructures/ADSL/variables/APxxEDTF", "title": "Period xx End Date Imput. Flag", "type": "Analysis Variable"}}, "codelistSubmissionValues": ["DATEFL"], "core": "Cond", "description": "The level of imputation of period xx end date. See Section 3.1.3, Date and Time Imputation Flag Variables.", "label": "Period xx End Date Imput. Flag", "name": "APxxEDTF", "ordinal": "67", "simpleDatatype": "Char"}, {"_links": {"codelist": [{"href": "/mdr/root/ct/adamct/codelists/C81226", "title": "Version-agnostic anchor resource for codelist C81226", "type": "Root Value Domain"}], "parentDatastructure": {"href": "/mdr/adam/adamig-1-2/datastructures/ADSL", "title": "Subject-Level Analysis Dataset Structure", "type": "Data Structure"}, "parentProduct": {"href": "/mdr/adam/adamig-1-2", "title": "Analysis Data Model Implementation Guide Version 1.2", "type": "Implementation Guide"}, "parentVariableSet": {"href": "/mdr/adam/adamig-1-2/datastructures/ADSL/varsets/PeriodSubperiodPhaseTiming", "title": "ADSL Period Subperiod and Phase Timing Variables", "type": "Variable Set"}, "priorVersion": {"href": "/mdr/adam/adamig-1-1/datastructures/ADSL/variables/APxxETMF", "title": "Period xx End Time Imput. Flag", "type": "Analysis Variable"}, "self": {"href": "/mdr/adam/adamig-1-2/datastructures/ADSL/variables/APxxETMF", "title": "Period xx End Time Imput. Flag", "type": "Analysis Variable"}}, "codelistSubmissionValues": ["TIMEFL"], "core": "Cond", "description": "The level of imputation of period xx end time. See Section 3.1.3, Date and Time Imputation Flag Variables.", "label": "Period xx End Time Imput. Flag", "name": "APxxETMF", "ordinal": "68", "simpleDatatype": "Char"}, {"_links": {"parentDatastructure": {"href": "/mdr/adam/adamig-1-2/datastructures/ADSL", "title": "Subject-Level Analysis Dataset Structure", "type": "Data Structure"}, "parentProduct": {"href": "/mdr/adam/adamig-1-2", "title": "Analysis Data Model Implementation Guide Version 1.2", "type": "Implementation Guide"}, "parentVariableSet": {"href": "/mdr/adam/adamig-1-2/datastructures/ADSL/varsets/PeriodSubperiodPhaseTiming", "title": "ADSL Period Subperiod and Phase Timing Variables", "type": "Variable Set"}, "priorVersion": {"href": "/mdr/adam/adamig-1-1/datastructures/ADSL/variables/PxxSw", "title": "Description of  Period xx Subperiod w", "type": "Analysis Variable"}, "self": {"href": "/mdr/adam/adamig-1-2/datastructures/ADSL/variables/PxxSw", "title": "Description of Period xx Subperiod w", "type": "Analysis Variable"}}, "core": "Perm", "description": "Description of analysis subperiod w within period xx.", "label": "Description of Period xx Subperiod w", "name": "PxxSw", "ordinal": "69", "simpleDatatype": "Char"}, {"_links": {"parentDatastructure": {"href": "/mdr/adam/adamig-1-2/datastructures/ADSL", "title": "Subject-Level Analysis Dataset Structure", "type": "Data Structure"}, "parentProduct": {"href": "/mdr/adam/adamig-1-2", "title": "Analysis Data Model Implementation Guide Version 1.2", "type": "Implementation Guide"}, "parentVariableSet": {"href": "/mdr/adam/adamig-1-2/datastructures/ADSL/varsets/PeriodSubperiodPhaseTiming", "title": "ADSL Period Subperiod and Phase Timing Variables", "type": "Variable Set"}, "priorVersion": {"href": "/mdr/adam/adamig-1-1/datastructures/ADSL/variables/PxxSwSDT", "title": "Period xx Subperiod w Start Date", "type": "Analysis Variable"}, "self": {"href": "/mdr/adam/adamig-1-2/datastructures/ADSL/variables/PxxSwSDT", "title": "Period xx Subperiod w Start Date", "type": "Analysis Variable"}}, "core": "Perm", "description": "The starting date of subperiod w within period xx.", "label": "Period xx Subperiod w Start Date", "name": "PxxSwSDT", "ordinal": "70", "simpleDatatype": "Num"}, {"_links": {"parentDatastructure": {"href": "/mdr/adam/adamig-1-2/datastructures/ADSL", "title": "Subject-Level Analysis Dataset Structure", "type": "Data Structure"}, "parentProduct": {"href": "/mdr/adam/adamig-1-2", "title": "Analysis Data Model Implementation Guide Version 1.2", "type": "Implementation Guide"}, "parentVariableSet": {"href": "/mdr/adam/adamig-1-2/datastructures/ADSL/varsets/PeriodSubperiodPhaseTiming", "title": "ADSL Period Subperiod and Phase Timing Variables", "type": "Variable Set"}, "priorVersion": {"href": "/mdr/adam/adamig-1-1/datastructures/ADSL/variables/PxxSwSTM", "title": "Period xx Subperiod w Start Time", "type": "Analysis Variable"}, "self": {"href": "/mdr/adam/adamig-1-2/datastructures/ADSL/variables/PxxSwSTM", "title": "Period xx Subperiod w Start Time", "type": "Analysis Variable"}}, "core": "Perm", "description": "The starting time of subperiod w within period xx.", "label": "Period xx Subperiod w Start Time", "name": "PxxSwSTM", "ordinal": "71", "simpleDatatype": "Num"}, {"_links": {"parentDatastructure": {"href": "/mdr/adam/adamig-1-2/datastructures/ADSL", "title": "Subject-Level Analysis Dataset Structure", "type": "Data Structure"}, "parentProduct": {"href": "/mdr/adam/adamig-1-2", "title": "Analysis Data Model Implementation Guide Version 1.2", "type": "Implementation Guide"}, "parentVariableSet": {"href": "/mdr/adam/adamig-1-2/datastructures/ADSL/varsets/PeriodSubperiodPhaseTiming", "title": "ADSL Period Subperiod and Phase Timing Variables", "type": "Variable Set"}, "priorVersion": {"href": "/mdr/adam/adamig-1-1/datastructures/ADSL/variables/PxxSwSDM", "title": "Period xx Subperiod w Start Datetime", "type": "Analysis Variable"}, "self": {"href": "/mdr/adam/adamig-1-2/datastructures/ADSL/variables/PxxSwSDM", "title": "Period xx Subperiod w Start Datetime", "type": "Analysis Variable"}}, "core": "Perm", "description": "The starting datetime of subperiod w within period xx.", "label": "Period xx Subperiod w Start Datetime", "name": "PxxSwSDM", "ordinal": "72", "simpleDatatype": "Num"}, {"_links": {"codelist": [{"href": "/mdr/root/ct/adamct/codelists/C81223", "title": "Version-agnostic anchor resource for codelist C81223", "type": "Root Value Domain"}], "parentDatastructure": {"href": "/mdr/adam/adamig-1-2/datastructures/ADSL", "title": "Subject-Level Analysis Dataset Structure", "type": "Data Structure"}, "parentProduct": {"href": "/mdr/adam/adamig-1-2", "title": "Analysis Data Model Implementation Guide Version 1.2", "type": "Implementation Guide"}, "parentVariableSet": {"href": "/mdr/adam/adamig-1-2/datastructures/ADSL/varsets/PeriodSubperiodPhaseTiming", "title": "ADSL Period Subperiod and Phase Timing Variables", "type": "Variable Set"}, "priorVersion": {"href": "/mdr/adam/adamig-1-1/datastructures/ADSL/variables/PxxSwSDF", "title": "Period xx Subper w Start Date Imput Flag", "type": "Analysis Variable"}, "self": {"href": "/mdr/adam/adamig-1-2/datastructures/ADSL/variables/PxxSwSDF", "title": "Period xx Subper w Start Date Imput Flag", "type": "Analysis Variable"}}, "codelistSubmissionValues": ["DATEFL"], "core": "Cond", "description": "The level of imputation of the start date for subperiod w within period xx. See Section 3.1.3, Date and Time Imputation Flag Variables.", "label": "Period xx Subper w Start Date Imput Flag", "name": "PxxSwSDF", "ordinal": "73", "simpleDatatype": "Char"}, {"_links": {"codelist": [{"href": "/mdr/root/ct/adamct/codelists/C81226", "title": "Version-agnostic anchor resource for codelist C81226", "type": "Root Value Domain"}], "parentDatastructure": {"href": "/mdr/adam/adamig-1-2/datastructures/ADSL", "title": "Subject-Level Analysis Dataset Structure", "type": "Data Structure"}, "parentProduct": {"href": "/mdr/adam/adamig-1-2", "title": "Analysis Data Model Implementation Guide Version 1.2", "type": "Implementation Guide"}, "parentVariableSet": {"href": "/mdr/adam/adamig-1-2/datastructures/ADSL/varsets/PeriodSubperiodPhaseTiming", "title": "ADSL Period Subperiod and Phase Timing Variables", "type": "Variable Set"}, "priorVersion": {"href": "/mdr/adam/adamig-1-1/datastructures/ADSL/variables/PxxSwSTF", "title": "Period xx Subper w Start Time Imput Flag", "type": "Analysis Variable"}, "self": {"href": "/mdr/adam/adamig-1-2/datastructures/ADSL/variables/PxxSwSTF", "title": "Period xx Subper w Start Time Imput Flag", "type": "Analysis Variable"}}, "codelistSubmissionValues": ["TIMEFL"], "core": "Cond", "description": "The level of imputation of the start time for subperiod w within period xx. See Section 3.1.3, Date and Time Imputation Flag Variables.", "label": "Period xx Subper w Start Time Imput Flag", "name": "PxxSwSTF", "ordinal": "74", "simpleDatatype": "Char"}, {"_links": {"parentDatastructure": {"href": "/mdr/adam/adamig-1-2/datastructures/ADSL", "title": "Subject-Level Analysis Dataset Structure", "type": "Data Structure"}, "parentProduct": {"href": "/mdr/adam/adamig-1-2", "title": "Analysis Data Model Implementation Guide Version 1.2", "type": "Implementation Guide"}, "parentVariableSet": {"href": "/mdr/adam/adamig-1-2/datastructures/ADSL/varsets/PeriodSubperiodPhaseTiming", "title": "ADSL Period Subperiod and Phase Timing Variables", "type": "Variable Set"}, "priorVersion": {"href": "/mdr/adam/adamig-1-1/datastructures/ADSL/variables/PxxSwEDT", "title": "Period xx Subperiod w End Date", "type": "Analysis Variable"}, "self": {"href": "/mdr/adam/adamig-1-2/datastructures/ADSL/variables/PxxSwEDT", "title": "Period xx Subperiod w End Date", "type": "Analysis Variable"}}, "core": "Perm", "description": "The ending date of subperiod w within period xx.", "label": "Period xx Subperiod w End Date", "name": "PxxSwEDT", "ordinal": "75", "simpleDatatype": "Num"}, {"_links": {"parentDatastructure": {"href": "/mdr/adam/adamig-1-2/datastructures/ADSL", "title": "Subject-Level Analysis Dataset Structure", "type": "Data Structure"}, "parentProduct": {"href": "/mdr/adam/adamig-1-2", "title": "Analysis Data Model Implementation Guide Version 1.2", "type": "Implementation Guide"}, "parentVariableSet": {"href": "/mdr/adam/adamig-1-2/datastructures/ADSL/varsets/PeriodSubperiodPhaseTiming", "title": "ADSL Period Subperiod and Phase Timing Variables", "type": "Variable Set"}, "priorVersion": {"href": "/mdr/adam/adamig-1-1/datastructures/ADSL/variables/PxxSwETM", "title": "Period xx Subperiod w End Time", "type": "Analysis Variable"}, "self": {"href": "/mdr/adam/adamig-1-2/datastructures/ADSL/variables/PxxSwETM", "title": "Period xx Subperiod w End Time", "type": "Analysis Variable"}}, "core": "Perm", "description": "The ending time of subperiod w within period xx.", "label": "Period xx Subperiod w End Time", "name": "PxxSwETM", "ordinal": "76", "simpleDatatype": "Num"}, {"_links": {"parentDatastructure": {"href": "/mdr/adam/adamig-1-2/datastructures/ADSL", "title": "Subject-Level Analysis Dataset Structure", "type": "Data Structure"}, "parentProduct": {"href": "/mdr/adam/adamig-1-2", "title": "Analysis Data Model Implementation Guide Version 1.2", "type": "Implementation Guide"}, "parentVariableSet": {"href": "/mdr/adam/adamig-1-2/datastructures/ADSL/varsets/PeriodSubperiodPhaseTiming", "title": "ADSL Period Subperiod and Phase Timing Variables", "type": "Variable Set"}, "priorVersion": {"href": "/mdr/adam/adamig-1-1/datastructures/ADSL/variables/PxxSwEDM", "title": "Period xx Subperiod w End Datetime", "type": "Analysis Variable"}, "self": {"href": "/mdr/adam/adamig-1-2/datastructures/ADSL/variables/PxxSwEDM", "title": "Period xx Subperiod w End Datetime", "type": "Analysis Variable"}}, "core": "Perm", "description": "The ending datetime of subperiod w within period xx.", "label": "Period xx Subperiod w End Datetime", "name": "PxxSwEDM", "ordinal": "77", "simpleDatatype": "Num"}, {"_links": {"codelist": [{"href": "/mdr/root/ct/adamct/codelists/C81223", "title": "Version-agnostic anchor resource for codelist C81223", "type": "Root Value Domain"}], "parentDatastructure": {"href": "/mdr/adam/adamig-1-2/datastructures/ADSL", "title": "Subject-Level Analysis Dataset Structure", "type": "Data Structure"}, "parentProduct": {"href": "/mdr/adam/adamig-1-2", "title": "Analysis Data Model Implementation Guide Version 1.2", "type": "Implementation Guide"}, "parentVariableSet": {"href": "/mdr/adam/adamig-1-2/datastructures/ADSL/varsets/PeriodSubperiodPhaseTiming", "title": "ADSL Period Subperiod and Phase Timing Variables", "type": "Variable Set"}, "priorVersion": {"href": "/mdr/adam/adamig-1-1/datastructures/ADSL/variables/PxxSwEDF", "title": "Period xx Subper w End Date Imput Flag", "type": "Analysis Variable"}, "self": {"href": "/mdr/adam/adamig-1-2/datastructures/ADSL/variables/PxxSwEDF", "title": "Period xx Subper w End Date Imput Flag", "type": "Analysis Variable"}}, "codelistSubmissionValues": ["DATEFL"], "core": "Cond", "description": "The level of imputation of the end date for subperiod w within period xx. See Section 3.1.3, Date and Time Imputation Flag Variables.", "label": "Period xx Subper w End Date Imput Flag", "name": "PxxSwEDF", "ordinal": "78", "simpleDatatype": "Char"}, {"_links": {"codelist": [{"href": "/mdr/root/ct/adamct/codelists/C81226", "title": "Version-agnostic anchor resource for codelist C81226", "type": "Root Value Domain"}], "parentDatastructure": {"href": "/mdr/adam/adamig-1-2/datastructures/ADSL", "title": "Subject-Level Analysis Dataset Structure", "type": "Data Structure"}, "parentProduct": {"href": "/mdr/adam/adamig-1-2", "title": "Analysis Data Model Implementation Guide Version 1.2", "type": "Implementation Guide"}, "parentVariableSet": {"href": "/mdr/adam/adamig-1-2/datastructures/ADSL/varsets/PeriodSubperiodPhaseTiming", "title": "ADSL Period Subperiod and Phase Timing Variables", "type": "Variable Set"}, "priorVersion": {"href": "/mdr/adam/adamig-1-1/datastructures/ADSL/variables/PxxSwETF", "title": "Period xx Subper w End Time Imput Flag", "type": "Analysis Variable"}, "self": {"href": "/mdr/adam/adamig-1-2/datastructures/ADSL/variables/PxxSwETF", "title": "Period xx Subper w End Time Imput Flag", "type": "Analysis Variable"}}, "codelistSubmissionValues": ["TIMEFL"], "core": "Cond", "description": "The level of imputation of the end time for subperiod w within period xx. See Section 3.1.3, Date and Time Imputation Flag Variables.", "label": "Period xx Subper w End Time Imput Flag", "name": "PxxSwETF", "ordinal": "79", "simpleDatatype": "Char"}, {"_links": {"parentDatastructure": {"href": "/mdr/adam/adamig-1-2/datastructures/ADSL", "title": "Subject-Level Analysis Dataset Structure", "type": "Data Structure"}, "parentProduct": {"href": "/mdr/adam/adamig-1-2", "title": "Analysis Data Model Implementation Guide Version 1.2", "type": "Implementation Guide"}, "parentVariableSet": {"href": "/mdr/adam/adamig-1-2/datastructures/ADSL/varsets/PeriodSubperiodPhaseTiming", "title": "ADSL Period Subperiod and Phase Timing Variables", "type": "Variable Set"}, "priorVersion": {"href": "/mdr/adam/adamig-1-1/datastructures/ADSL/variables/APHASEw", "title": "Description of Phase w", "type": "Analysis Variable"}, "self": {"href": "/mdr/adam/adamig-1-2/datastructures/ADSL/variables/APHASEw", "title": "Description of Phase w", "type": "Analysis Variable"}}, "core": "Perm", "description": "Description of analysis phase w. Analysis phase is independent of TRTxxP within ADSL, and may be populated for spans of time where a subject is not on treatment.", "label": "Description of Phase w", "name": "APHASEw", "ordinal": "80", "simpleDatatype": "Char"}, {"_links": {"parentDatastructure": {"href": "/mdr/adam/adamig-1-2/datastructures/ADSL", "title": "Subject-Level Analysis Dataset Structure", "type": "Data Structure"}, "parentProduct": {"href": "/mdr/adam/adamig-1-2", "title": "Analysis Data Model Implementation Guide Version 1.2", "type": "Implementation Guide"}, "parentVariableSet": {"href": "/mdr/adam/adamig-1-2/datastructures/ADSL/varsets/PeriodSubperiodPhaseTiming", "title": "ADSL Period Subperiod and Phase Timing Variables", "type": "Variable Set"}, "priorVersion": {"href": "/mdr/adam/adamig-1-1/datastructures/ADSL/variables/PHwSDT", "title": "Phase w Start Date", "type": "Analysis Variable"}, "self": {"href": "/mdr/adam/adamig-1-2/datastructures/ADSL/variables/PHwSDT", "title": "Phase w Start Date", "type": "Analysis Variable"}}, "core": "Perm", "description": "The starting date of phase w.", "label": "Phase w Start Date", "name": "PHwSDT", "ordinal": "81", "simpleDatatype": "Num"}, {"_links": {"parentDatastructure": {"href": "/mdr/adam/adamig-1-2/datastructures/ADSL", "title": "Subject-Level Analysis Dataset Structure", "type": "Data Structure"}, "parentProduct": {"href": "/mdr/adam/adamig-1-2", "title": "Analysis Data Model Implementation Guide Version 1.2", "type": "Implementation Guide"}, "parentVariableSet": {"href": "/mdr/adam/adamig-1-2/datastructures/ADSL/varsets/PeriodSubperiodPhaseTiming", "title": "ADSL Period Subperiod and Phase Timing Variables", "type": "Variable Set"}, "priorVersion": {"href": "/mdr/adam/adamig-1-1/datastructures/ADSL/variables/PHwSTM", "title": "Phase w Start Time", "type": "Analysis Variable"}, "self": {"href": "/mdr/adam/adamig-1-2/datastructures/ADSL/variables/PHwSTM", "title": "Phase w Start Time", "type": "Analysis Variable"}}, "core": "Perm", "description": "The starting time of phase w.", "label": "Phase w Start Time", "name": "PHwSTM", "ordinal": "82", "simpleDatatype": "Num"}, {"_links": {"parentDatastructure": {"href": "/mdr/adam/adamig-1-2/datastructures/ADSL", "title": "Subject-Level Analysis Dataset Structure", "type": "Data Structure"}, "parentProduct": {"href": "/mdr/adam/adamig-1-2", "title": "Analysis Data Model Implementation Guide Version 1.2", "type": "Implementation Guide"}, "parentVariableSet": {"href": "/mdr/adam/adamig-1-2/datastructures/ADSL/varsets/PeriodSubperiodPhaseTiming", "title": "ADSL Period Subperiod and Phase Timing Variables", "type": "Variable Set"}, "priorVersion": {"href": "/mdr/adam/adamig-1-1/datastructures/ADSL/variables/PHwSDTM", "title": "Phase w Start Datetime", "type": "Analysis Variable"}, "self": {"href": "/mdr/adam/adamig-1-2/datastructures/ADSL/variables/PHwSDTM", "title": "Phase w Start Datetime", "type": "Analysis Variable"}}, "core": "Perm", "description": "The starting datetime of phase w.", "label": "Phase w Start Datetime", "name": "PHwSDTM", "ordinal": "83", "simpleDatatype": "Num"}, {"_links": {"codelist": [{"href": "/mdr/root/ct/adamct/codelists/C81223", "title": "Version-agnostic anchor resource for codelist C81223", "type": "Root Value Domain"}], "parentDatastructure": {"href": "/mdr/adam/adamig-1-2/datastructures/ADSL", "title": "Subject-Level Analysis Dataset Structure", "type": "Data Structure"}, "parentProduct": {"href": "/mdr/adam/adamig-1-2", "title": "Analysis Data Model Implementation Guide Version 1.2", "type": "Implementation Guide"}, "parentVariableSet": {"href": "/mdr/adam/adamig-1-2/datastructures/ADSL/varsets/PeriodSubperiodPhaseTiming", "title": "ADSL Period Subperiod and Phase Timing Variables", "type": "Variable Set"}, "priorVersion": {"href": "/mdr/adam/adamig-1-1/datastructures/ADSL/variables/PHwSDTF", "title": "Phase w Start Date Imputation Flag", "type": "Analysis Variable"}, "self": {"href": "/mdr/adam/adamig-1-2/datastructures/ADSL/variables/PHwSDTF", "title": "Phase w Start Date Imputation Flag", "type": "Analysis Variable"}}, "codelistSubmissionValues": ["DATEFL"], "core": "Cond", "description": "The level of imputation of the start date for phase w. See Section 3.1.3, Date and Time Imputation Flag Variables.", "label": "Phase w Start Date Imputation Flag", "name": "PHwSDTF", "ordinal": "84", "simpleDatatype": "Char"}, {"_links": {"codelist": [{"href": "/mdr/root/ct/adamct/codelists/C81226", "title": "Version-agnostic anchor resource for codelist C81226", "type": "Root Value Domain"}], "parentDatastructure": {"href": "/mdr/adam/adamig-1-2/datastructures/ADSL", "title": "Subject-Level Analysis Dataset Structure", "type": "Data Structure"}, "parentProduct": {"href": "/mdr/adam/adamig-1-2", "title": "Analysis Data Model Implementation Guide Version 1.2", "type": "Implementation Guide"}, "parentVariableSet": {"href": "/mdr/adam/adamig-1-2/datastructures/ADSL/varsets/PeriodSubperiodPhaseTiming", "title": "ADSL Period Subperiod and Phase Timing Variables", "type": "Variable Set"}, "priorVersion": {"href": "/mdr/adam/adamig-1-1/datastructures/ADSL/variables/PHwSTMF", "title": "Phase w Start Time Imputation Flag", "type": "Analysis Variable"}, "self": {"href": "/mdr/adam/adamig-1-2/datastructures/ADSL/variables/PHwSTMF", "title": "Phase w Start Time Imputation Flag", "type": "Analysis Variable"}}, "codelistSubmissionValues": ["TIMEFL"], "core": "Cond", "description": "The level of imputation of the start time for phase w. See Section 3.1.3, Date and Time Imputation Flag Variables.", "label": "Phase w Start Time Imputation Flag", "name": "PHwSTMF", "ordinal": "85", "simpleDatatype": "Char"}, {"_links": {"parentDatastructure": {"href": "/mdr/adam/adamig-1-2/datastructures/ADSL", "title": "Subject-Level Analysis Dataset Structure", "type": "Data Structure"}, "parentProduct": {"href": "/mdr/adam/adamig-1-2", "title": "Analysis Data Model Implementation Guide Version 1.2", "type": "Implementation Guide"}, "parentVariableSet": {"href": "/mdr/adam/adamig-1-2/datastructures/ADSL/varsets/PeriodSubperiodPhaseTiming", "title": "ADSL Period Subperiod and Phase Timing Variables", "type": "Variable Set"}, "priorVersion": {"href": "/mdr/adam/adamig-1-1/datastructures/ADSL/variables/PHwEDT", "title": "Phase w End Date", "type": "Analysis Variable"}, "self": {"href": "/mdr/adam/adamig-1-2/datastructures/ADSL/variables/PHwEDT", "title": "Phase w End Date", "type": "Analysis Variable"}}, "core": "Perm", "description": "The ending date of phase w.", "label": "Phase w End Date", "name": "PHwEDT", "ordinal": "86", "simpleDatatype": "Num"}, {"_links": {"parentDatastructure": {"href": "/mdr/adam/adamig-1-2/datastructures/ADSL", "title": "Subject-Level Analysis Dataset Structure", "type": "Data Structure"}, "parentProduct": {"href": "/mdr/adam/adamig-1-2", "title": "Analysis Data Model Implementation Guide Version 1.2", "type": "Implementation Guide"}, "parentVariableSet": {"href": "/mdr/adam/adamig-1-2/datastructures/ADSL/varsets/PeriodSubperiodPhaseTiming", "title": "ADSL Period Subperiod and Phase Timing Variables", "type": "Variable Set"}, "priorVersion": {"href": "/mdr/adam/adamig-1-1/datastructures/ADSL/variables/PHwETM", "title": "Phase w End Time", "type": "Analysis Variable"}, "self": {"href": "/mdr/adam/adamig-1-2/datastructures/ADSL/variables/PHwETM", "title": "Phase w End Time", "type": "Analysis Variable"}}, "core": "Perm", "description": "The ending time of phase w.", "label": "Phase w End Time", "name": "PHwETM", "ordinal": "87", "simpleDatatype": "Num"}, {"_links": {"parentDatastructure": {"href": "/mdr/adam/adamig-1-2/datastructures/ADSL", "title": "Subject-Level Analysis Dataset Structure", "type": "Data Structure"}, "parentProduct": {"href": "/mdr/adam/adamig-1-2", "title": "Analysis Data Model Implementation Guide Version 1.2", "type": "Implementation Guide"}, "parentVariableSet": {"href": "/mdr/adam/adamig-1-2/datastructures/ADSL/varsets/PeriodSubperiodPhaseTiming", "title": "ADSL Period Subperiod and Phase Timing Variables", "type": "Variable Set"}, "priorVersion": {"href": "/mdr/adam/adamig-1-1/datastructures/ADSL/variables/PHwEDTM", "title": "Phase w End Datetime", "type": "Analysis Variable"}, "self": {"href": "/mdr/adam/adamig-1-2/datastructures/ADSL/variables/PHwEDTM", "title": "Phase w End Datetime", "type": "Analysis Variable"}}, "core": "Perm", "description": "The ending datetime of phase w.", "label": "Phase w End Datetime", "name": "PHwEDTM", "ordinal": "88", "simpleDatatype": "Num"}, {"_links": {"codelist": [{"href": "/mdr/root/ct/adamct/codelists/C81223", "title": "Version-agnostic anchor resource for codelist C81223", "type": "Root Value Domain"}], "parentDatastructure": {"href": "/mdr/adam/adamig-1-2/datastructures/ADSL", "title": "Subject-Level Analysis Dataset Structure", "type": "Data Structure"}, "parentProduct": {"href": "/mdr/adam/adamig-1-2", "title": "Analysis Data Model Implementation Guide Version 1.2", "type": "Implementation Guide"}, "parentVariableSet": {"href": "/mdr/adam/adamig-1-2/datastructures/ADSL/varsets/PeriodSubperiodPhaseTiming", "title": "ADSL Period Subperiod and Phase Timing Variables", "type": "Variable Set"}, "priorVersion": {"href": "/mdr/adam/adamig-1-1/datastructures/ADSL/variables/PHwEDTF", "title": "Phase w End Date Imputation Flag", "type": "Analysis Variable"}, "self": {"href": "/mdr/adam/adamig-1-2/datastructures/ADSL/variables/PHwEDTF", "title": "Phase w End Date Imputation Flag", "type": "Analysis Variable"}}, "codelistSubmissionValues": ["DATEFL"], "core": "Cond", "description": "The level of imputation of the end date for phase w. See Section 3.1.3, Date and Time Imputation Flag Variables.", "label": "Phase w End Date Imputation Flag", "name": "PHwEDTF", "ordinal": "89", "simpleDatatype": "Char"}, {"_links": {"codelist": [{"href": "/mdr/root/ct/adamct/codelists/C81226", "title": "Version-agnostic anchor resource for codelist C81226", "type": "Root Value Domain"}], "parentDatastructure": {"href": "/mdr/adam/adamig-1-2/datastructures/ADSL", "title": "Subject-Level Analysis Dataset Structure", "type": "Data Structure"}, "parentProduct": {"href": "/mdr/adam/adamig-1-2", "title": "Analysis Data Model Implementation Guide Version 1.2", "type": "Implementation Guide"}, "parentVariableSet": {"href": "/mdr/adam/adamig-1-2/datastructures/ADSL/varsets/PeriodSubperiodPhaseTiming", "title": "ADSL Period Subperiod and Phase Timing Variables", "type": "Variable Set"}, "priorVersion": {"href": "/mdr/adam/adamig-1-1/datastructures/ADSL/variables/PHwETMF", "title": "Phase w End Time Imputation Flag", "type": "Analysis Variable"}, "self": {"href": "/mdr/adam/adamig-1-2/datastructures/ADSL/variables/PHwETMF", "title": "Phase w End Time Imputation Flag", "type": "Analysis Variable"}}, "codelistSubmissionValues": ["TIMEFL"], "core": "Cond", "description": "The level of imputation of the end time for phase w. See Section 3.1.3, Date and Time Imputation Flag Variables.", "label": "Phase w End Time Imputation Flag", "name": "PHwETMF", "ordinal": "90", "simpleDatatype": "Char"}], "description": " ", "label": "ADSL Period Subperiod and Phase Timing Variables", "name": "PeriodSubperiodPhaseTiming", "ordinal": "6"}, {"_links": {"parentDatastructure": {"href": "/mdr/adam/adamig-1-2/datastructures/ADSL", "title": "Subject-Level Analysis Dataset Structure", "type": "Data Structure"}, "parentProduct": {"href": "/mdr/adam/adamig-1-2", "title": "Analysis Data Model Implementation Guide Version 1.2", "type": "Implementation Guide"}, "priorVersion": {"href": "/mdr/adam/adamig-1-1/datastructures/ADSL/varsets/TrialExperience", "title": "ADSL Subject-Level Trial Experience Variables", "type": "Variable Set"}, "self": {"href": "/mdr/adam/adamig-1-2/datastructures/ADSL/varsets/TrialExperience", "title": "ADSL Trial Experience Variables", "type": "Variable Set"}}, "analysisVariables": [{"_links": {"codelist": [{"href": "/mdr/root/ct/adamct/codelists/C124296", "title": "Version-agnostic anchor resource for codelist C124296", "type": "Root Value Domain"}], "parentDatastructure": {"href": "/mdr/adam/adamig-1-2/datastructures/ADSL", "title": "Subject-Level Analysis Dataset Structure", "type": "Data Structure"}, "parentProduct": {"href": "/mdr/adam/adamig-1-2", "title": "Analysis Data Model Implementation Guide Version 1.2", "type": "Implementation Guide"}, "parentVariableSet": {"href": "/mdr/adam/adamig-1-2/datastructures/ADSL/varsets/TrialExperience", "title": "ADSL Trial Experience Variables", "type": "Variable Set"}, "priorVersion": {"href": "/mdr/adam/adamig-1-1/datastructures/ADSL/variables/EOSSTT", "title": "End of Study Status", "type": "Analysis Variable"}, "self": {"href": "/mdr/adam/adamig-1-2/datastructures/ADSL/variables/EOSSTT", "title": "End of Study Status", "type": "Analysis Variable"}}, "codelistSubmissionValues": ["SBJTSTAT"], "core": "Perm", "description": "The subject's status as of the end of study or data cutoff. Examples: COMPLETED, DISCONTINUED, ONGOING.", "label": "End of Study Status", "name": "EOSSTT", "ordinal": "91", "simpleDatatype": "Char"}, {"_links": {"parentDatastructure": {"href": "/mdr/adam/adamig-1-2/datastructures/ADSL", "title": "Subject-Level Analysis Dataset Structure", "type": "Data Structure"}, "parentProduct": {"href": "/mdr/adam/adamig-1-2", "title": "Analysis Data Model Implementation Guide Version 1.2", "type": "Implementation Guide"}, "parentVariableSet": {"href": "/mdr/adam/adamig-1-2/datastructures/ADSL/varsets/TrialExperience", "title": "ADSL Trial Experience Variables", "type": "Variable Set"}, "priorVersion": {"href": "/mdr/adam/adamig-1-1/datastructures/ADSL/variables/EOSDT", "title": "End of Study Date", "type": "Analysis Variable"}, "self": {"href": "/mdr/adam/adamig-1-2/datastructures/ADSL/variables/EOSDT", "title": "End of Study Date", "type": "Analysis Variable"}}, "core": "Perm", "description": "Date subject ended the study - either date of completion or date of discontinuation or data cutoff date for interim analyses.", "label": "End of Study Date", "name": "EOSDT", "ordinal": "92", "simpleDatatype": "Num"}, {"_links": {"parentDatastructure": {"href": "/mdr/adam/adamig-1-2/datastructures/ADSL", "title": "Subject-Level Analysis Dataset Structure", "type": "Data Structure"}, "parentProduct": {"href": "/mdr/adam/adamig-1-2", "title": "Analysis Data Model Implementation Guide Version 1.2", "type": "Implementation Guide"}, "parentVariableSet": {"href": "/mdr/adam/adamig-1-2/datastructures/ADSL/varsets/TrialExperience", "title": "ADSL Trial Experience Variables", "type": "Variable Set"}, "priorVersion": {"href": "/mdr/adam/adamig-1-1/datastructures/ADSL/variables/DCSREAS", "title": "Reason for Discontinuation from Study", "type": "Analysis Variable"}, "self": {"href": "/mdr/adam/adamig-1-2/datastructures/ADSL/variables/DCSREAS", "title": "Reason for Discontinuation from Study", "type": "Analysis Variable"}}, "core": "Perm", "description": "Reason for subject's discontinuation from study. The source would most likely be the SDTM DS dataset. Null for subjects who completed the study.", "label": "Reason for Discontinuation from Study", "name": "DCSREAS", "ordinal": "93", "simpleDatatype": "Char"}, {"_links": {"parentDatastructure": {"href": "/mdr/adam/adamig-1-2/datastructures/ADSL", "title": "Subject-Level Analysis Dataset Structure", "type": "Data Structure"}, "parentProduct": {"href": "/mdr/adam/adamig-1-2", "title": "Analysis Data Model Implementation Guide Version 1.2", "type": "Implementation Guide"}, "parentVariableSet": {"href": "/mdr/adam/adamig-1-2/datastructures/ADSL/varsets/TrialExperience", "title": "ADSL Trial Experience Variables", "type": "Variable Set"}, "priorVersion": {"href": "/mdr/adam/adamig-1-1/datastructures/ADSL/variables/DCSREASP", "title": "Reason Spec for Discont from Study", "type": "Analysis Variable"}, "self": {"href": "/mdr/adam/adamig-1-2/datastructures/ADSL/variables/DCSREASP", "title": "Reason Spec for Discont from Study", "type": "Analysis Variable"}}, "core": "Perm", "description": "Additional detail regarding subject's discontinuation from study (e.g., description of 'other').", "label": "Reason Spec for Discont from Study", "name": "DCSREASP", "ordinal": "94", "simpleDatatype": "Char"}, {"_links": {"codelist": [{"href": "/mdr/root/ct/adamct/codelists/C124296", "title": "Version-agnostic anchor resource for codelist C124296", "type": "Root Value Domain"}], "parentDatastructure": {"href": "/mdr/adam/adamig-1-2/datastructures/ADSL", "title": "Subject-Level Analysis Dataset Structure", "type": "Data Structure"}, "parentProduct": {"href": "/mdr/adam/adamig-1-2", "title": "Analysis Data Model Implementation Guide Version 1.2", "type": "Implementation Guide"}, "parentVariableSet": {"href": "/mdr/adam/adamig-1-2/datastructures/ADSL/varsets/TrialExperience", "title": "ADSL Trial Experience Variables", "type": "Variable Set"}, "priorVersion": {"href": "/mdr/adam/adamig-1-1/datastructures/ADSL/variables/EOTSTT", "title": "End of Treatment Status", "type": "Analysis Variable"}, "self": {"href": "/mdr/adam/adamig-1-2/datastructures/ADSL/variables/EOTSTT", "title": "End of Treatment Status", "type": "Analysis Variable"}}, "codelistSubmissionValues": ["SBJTSTAT"], "core": "Perm", "description": "The subject's status as of the end of treatment or data cutoff. Examples: COMPLETED, DISCONTINUED, ONGOING.", "label": "End of Treatment Status", "name": "EOTSTT", "ordinal": "95", "simpleDatatype": "Char"}, {"_links": {"parentDatastructure": {"href": "/mdr/adam/adamig-1-2/datastructures/ADSL", "title": "Subject-Level Analysis Dataset Structure", "type": "Data Structure"}, "parentProduct": {"href": "/mdr/adam/adamig-1-2", "title": "Analysis Data Model Implementation Guide Version 1.2", "type": "Implementation Guide"}, "parentVariableSet": {"href": "/mdr/adam/adamig-1-2/datastructures/ADSL/varsets/TrialExperience", "title": "ADSL Trial Experience Variables", "type": "Variable Set"}, "priorVersion": {"href": "/mdr/adam/adamig-1-1/datastructures/ADSL/variables/DCTREAS", "title": "Reason for Discontinuation of Treatment", "type": "Analysis Variable"}, "self": {"href": "/mdr/adam/adamig-1-2/datastructures/ADSL/variables/DCTREAS", "title": "Reason for Discontinuation of Treatment", "type": "Analysis Variable"}}, "core": "Perm", "description": "If a subject discontinued treatment in the study, then this variable indicates the reason for discontinuation. This is for discontinuation of treatment in the overall study and not to be used for discontinuation reason within individual treatment periods.", "label": "Reason for Discontinuation of Treatment", "name": "DCTREAS", "ordinal": "96", "simpleDatatype": "Char"}, {"_links": {"parentDatastructure": {"href": "/mdr/adam/adamig-1-2/datastructures/ADSL", "title": "Subject-Level Analysis Dataset Structure", "type": "Data Structure"}, "parentProduct": {"href": "/mdr/adam/adamig-1-2", "title": "Analysis Data Model Implementation Guide Version 1.2", "type": "Implementation Guide"}, "parentVariableSet": {"href": "/mdr/adam/adamig-1-2/datastructures/ADSL/varsets/TrialExperience", "title": "ADSL Trial Experience Variables", "type": "Variable Set"}, "priorVersion": {"href": "/mdr/adam/adamig-1-1/datastructures/ADSL/variables/DCTREASP", "title": "Reason Specify for Discont of Treatment", "type": "Analysis Variable"}, "self": {"href": "/mdr/adam/adamig-1-2/datastructures/ADSL/variables/DCTREASP", "title": "Reason Specify for Discont of Treatment", "type": "Analysis Variable"}}, "core": "Perm", "description": "Additional detail regarding subject's discontinuation from treatment (e.g., description of 'other').", "label": "Reason Specify for Discont of Treatment", "name": "DCTREASP", "ordinal": "97", "simpleDatatype": "Char"}, {"_links": {"codelist": [{"href": "/mdr/root/ct/adamct/codelists/C124296", "title": "Version-agnostic anchor resource for codelist C124296", "type": "Root Value Domain"}], "parentDatastructure": {"href": "/mdr/adam/adamig-1-2/datastructures/ADSL", "title": "Subject-Level Analysis Dataset Structure", "type": "Data Structure"}, "parentProduct": {"href": "/mdr/adam/adamig-1-2", "title": "Analysis Data Model Implementation Guide Version 1.2", "type": "Implementation Guide"}, "parentVariableSet": {"href": "/mdr/adam/adamig-1-2/datastructures/ADSL/varsets/TrialExperience", "title": "ADSL Trial Experience Variables", "type": "Variable Set"}, "priorVersion": {"href": "/mdr/adam/adamig-1-1/datastructures/ADSL/variables/EOTxxSTT", "title": "End of Treatment Status in Period xx", "type": "Analysis Variable"}, "self": {"href": "/mdr/adam/adamig-1-2/datastructures/ADSL/variables/EOTxxSTT", "title": "End of Treatment Status in Period xx", "type": "Analysis Variable"}}, "codelistSubmissionValues": ["SBJTSTAT"], "core": "Perm", "description": "The subject's treatment status as of the end of period xx, or data cutoff if within period xx. Examples: COMPLETED, DISCONTINUED, ONGOING.", "label": "End of Treatment Status in Period xx", "name": "EOTxxSTT", "ordinal": "98", "simpleDatatype": "Char"}, {"_links": {"parentDatastructure": {"href": "/mdr/adam/adamig-1-2/datastructures/ADSL", "title": "Subject-Level Analysis Dataset Structure", "type": "Data Structure"}, "parentProduct": {"href": "/mdr/adam/adamig-1-2", "title": "Analysis Data Model Implementation Guide Version 1.2", "type": "Implementation Guide"}, "parentVariableSet": {"href": "/mdr/adam/adamig-1-2/datastructures/ADSL/varsets/TrialExperience", "title": "ADSL Trial Experience Variables", "type": "Variable Set"}, "priorVersion": {"href": "/mdr/adam/adamig-1-1/datastructures/ADSL/variables/DCTxxRS", "title": "Reason for Discont of Treat in Period xx", "type": "Analysis Variable"}, "self": {"href": "/mdr/adam/adamig-1-2/datastructures/ADSL/variables/DCTxxRS", "title": "Reason for Discont of Treat in Period xx", "type": "Analysis Variable"}}, "core": "Perm", "description": "Reason for discontinuing treatment in period xx.", "label": "Reason for Discont of Treat in Period xx", "name": "DCTxxRS", "ordinal": "99", "simpleDatatype": "Char"}, {"_links": {"parentDatastructure": {"href": "/mdr/adam/adamig-1-2/datastructures/ADSL", "title": "Subject-Level Analysis Dataset Structure", "type": "Data Structure"}, "parentProduct": {"href": "/mdr/adam/adamig-1-2", "title": "Analysis Data Model Implementation Guide Version 1.2", "type": "Implementation Guide"}, "parentVariableSet": {"href": "/mdr/adam/adamig-1-2/datastructures/ADSL/varsets/TrialExperience", "title": "ADSL Trial Experience Variables", "type": "Variable Set"}, "priorVersion": {"href": "/mdr/adam/adamig-1-1/datastructures/ADSL/variables/DCTxxRSP", "title": "Reason Spec for Disc of Trt in Period xx", "type": "Analysis Variable"}, "self": {"href": "/mdr/adam/adamig-1-2/datastructures/ADSL/variables/DCTxxRSP", "title": "Reason Spec for Disc of Trt in Period xx", "type": "Analysis Variable"}}, "core": "Perm", "description": "Additional detail regarding subject's discontinuation of treatment in period xx (e.g., description of 'other').", "label": "Reason Spec for Disc of Trt in Period xx", "name": "DCTxxRSP", "ordinal": "100", "simpleDatatype": "Char"}, {"_links": {"codelist": [{"href": "/mdr/root/ct/adamct/codelists/C124296", "title": "Version-agnostic anchor resource for codelist C124296", "type": "Root Value Domain"}], "parentDatastructure": {"href": "/mdr/adam/adamig-1-2/datastructures/ADSL", "title": "Subject-Level Analysis Dataset Structure", "type": "Data Structure"}, "parentProduct": {"href": "/mdr/adam/adamig-1-2", "title": "Analysis Data Model Implementation Guide Version 1.2", "type": "Implementation Guide"}, "parentVariableSet": {"href": "/mdr/adam/adamig-1-2/datastructures/ADSL/varsets/TrialExperience", "title": "ADSL Trial Experience Variables", "type": "Variable Set"}, "priorVersion": {"href": "/mdr/adam/adamig-1-1/datastructures/ADSL/variables/EOPxxSTT", "title": "End of Period xx Status", "type": "Analysis Variable"}, "self": {"href": "/mdr/adam/adamig-1-2/datastructures/ADSL/variables/EOPxxSTT", "title": "End of Period xx Status", "type": "Analysis Variable"}}, "codelistSubmissionValues": ["SBJTSTAT"], "core": "Perm", "description": "The subject's status as of the end of period xx, or data cutoff if within period xx. Examples: COMPLETED, DISCONTINUED, ONGOING.", "label": "End of Period xx Status", "name": "EOPxxSTT", "ordinal": "101", "simpleDatatype": "Char"}, {"_links": {"parentDatastructure": {"href": "/mdr/adam/adamig-1-2/datastructures/ADSL", "title": "Subject-Level Analysis Dataset Structure", "type": "Data Structure"}, "parentProduct": {"href": "/mdr/adam/adamig-1-2", "title": "Analysis Data Model Implementation Guide Version 1.2", "type": "Implementation Guide"}, "parentVariableSet": {"href": "/mdr/adam/adamig-1-2/datastructures/ADSL/varsets/TrialExperience", "title": "ADSL Trial Experience Variables", "type": "Variable Set"}, "priorVersion": {"href": "/mdr/adam/adamig-1-1/datastructures/ADSL/variables/DCPxxRS", "title": "Reason for Discont from Period xx", "type": "Analysis Variable"}, "self": {"href": "/mdr/adam/adamig-1-2/datastructures/ADSL/variables/DCPxxRS", "title": "Reason for Discont from Period xx", "type": "Analysis Variable"}}, "core": "Perm", "description": "Reason for discontinuing analysis period xx.", "label": "Reason for Discont from Period xx", "name": "DCPxxRS", "ordinal": "102", "simpleDatatype": "Char"}, {"_links": {"parentDatastructure": {"href": "/mdr/adam/adamig-1-2/datastructures/ADSL", "title": "Subject-Level Analysis Dataset Structure", "type": "Data Structure"}, "parentProduct": {"href": "/mdr/adam/adamig-1-2", "title": "Analysis Data Model Implementation Guide Version 1.2", "type": "Implementation Guide"}, "parentVariableSet": {"href": "/mdr/adam/adamig-1-2/datastructures/ADSL/varsets/TrialExperience", "title": "ADSL Trial Experience Variables", "type": "Variable Set"}, "priorVersion": {"href": "/mdr/adam/adamig-1-1/datastructures/ADSL/variables/DCPxxRSP", "title": "Reason Spec for Discont from Period xx", "type": "Analysis Variable"}, "self": {"href": "/mdr/adam/adamig-1-2/datastructures/ADSL/variables/DCPxxRSP", "title": "Reason Spec for Discont from Period xx", "type": "Analysis Variable"}}, "core": "Perm", "description": "Additional detail regarding subject's discontinuation from period xx (e.g., description of 'other').", "label": "Reason Spec for Discont from Period xx", "name": "DCPxxRSP", "ordinal": "103", "simpleDatatype": "Char"}, {"_links": {"parentDatastructure": {"href": "/mdr/adam/adamig-1-2/datastructures/ADSL", "title": "Subject-Level Analysis Dataset Structure", "type": "Data Structure"}, "parentProduct": {"href": "/mdr/adam/adamig-1-2", "title": "Analysis Data Model Implementation Guide Version 1.2", "type": "Implementation Guide"}, "parentVariableSet": {"href": "/mdr/adam/adamig-1-2/datastructures/ADSL/varsets/TrialExperience", "title": "ADSL Trial Experience Variables", "type": "Variable Set"}, "priorVersion": {"href": "/mdr/adam/adamig-1-1/datastructures/ADSL/variables/RFICDT", "title": "Date of Informed Consent", "type": "Analysis Variable"}, "self": {"href": "/mdr/adam/adamig-1-2/datastructures/ADSL/variables/RFICDT", "title": "Date of Informed Consent", "type": "Analysis Variable"}}, "core": "Perm", "description": "Date subject gave informed consent. Generally equivalent to DM.RFICDTC.", "label": "Date of Informed Consent", "name": "RFICDT", "ordinal": "104", "simpleDatatype": "Num"}, {"_links": {"parentDatastructure": {"href": "/mdr/adam/adamig-1-2/datastructures/ADSL", "title": "Subject-Level Analysis Dataset Structure", "type": "Data Structure"}, "parentProduct": {"href": "/mdr/adam/adamig-1-2", "title": "Analysis Data Model Implementation Guide Version 1.2", "type": "Implementation Guide"}, "parentVariableSet": {"href": "/mdr/adam/adamig-1-2/datastructures/ADSL/varsets/TrialExperience", "title": "ADSL Trial Experience Variables", "type": "Variable Set"}, "priorVersion": {"href": "/mdr/adam/adamig-1-1/datastructures/ADSL/variables/ENRLDT", "title": "Date of Enrollment", "type": "Analysis Variable"}, "self": {"href": "/mdr/adam/adamig-1-2/datastructures/ADSL/variables/ENRLDT", "title": "Date of Enrollment", "type": "Analysis Variable"}}, "core": "Perm", "description": "Date of subject's enrollment into trial.", "label": "Date of Enrollment", "name": "ENRLDT", "ordinal": "105", "simpleDatatype": "Num"}, {"_links": {"parentDatastructure": {"href": "/mdr/adam/adamig-1-2/datastructures/ADSL", "title": "Subject-Level Analysis Dataset Structure", "type": "Data Structure"}, "parentProduct": {"href": "/mdr/adam/adamig-1-2", "title": "Analysis Data Model Implementation Guide Version 1.2", "type": "Implementation Guide"}, "parentVariableSet": {"href": "/mdr/adam/adamig-1-2/datastructures/ADSL/varsets/TrialExperience", "title": "ADSL Trial Experience Variables", "type": "Variable Set"}, "priorVersion": {"href": "/mdr/adam/adamig-1-1/datastructures/ADSL/variables/RANDDT", "title": "Date of Randomization", "type": "Analysis Variable"}, "self": {"href": "/mdr/adam/adamig-1-2/datastructures/ADSL/variables/RANDDT", "title": "Date of Randomization", "type": "Analysis Variable"}}, "core": "Cond", "description": "Required in randomized trials.", "label": "Date of Randomization", "name": "RANDDT", "ordinal": "106", "simpleDatatype": "Num"}, {"_links": {"parentDatastructure": {"href": "/mdr/adam/adamig-1-2/datastructures/ADSL", "title": "Subject-Level Analysis Dataset Structure", "type": "Data Structure"}, "parentProduct": {"href": "/mdr/adam/adamig-1-2", "title": "Analysis Data Model Implementation Guide Version 1.2", "type": "Implementation Guide"}, "parentVariableSet": {"href": "/mdr/adam/adamig-1-2/datastructures/ADSL/varsets/TrialExperience", "title": "ADSL Trial Experience Variables", "type": "Variable Set"}, "priorVersion": {"href": "/mdr/adam/adamig-1-1/datastructures/ADSL/variables/RFICyDT", "title": "Date of Informed Consent y", "type": "Analysis Variable"}, "self": {"href": "/mdr/adam/adamig-1-2/datastructures/ADSL/variables/RFICyDT", "title": "Date of Informed Consent y", "type": "Analysis Variable"}}, "core": "Perm", "description": "This variable may be used in the case where there are multiple consent dates within a study. This date does not need to repeat the date in RFICDT. 'y' can start with 1 but it is not required to start with 1.", "label": "Date of Informed Consent y", "name": "RFICyDT", "ordinal": "107", "simpleDatatype": "Num"}, {"_links": {"parentDatastructure": {"href": "/mdr/adam/adamig-1-2/datastructures/ADSL", "title": "Subject-Level Analysis Dataset Structure", "type": "Data Structure"}, "parentProduct": {"href": "/mdr/adam/adamig-1-2", "title": "Analysis Data Model Implementation Guide Version 1.2", "type": "Implementation Guide"}, "parentVariableSet": {"href": "/mdr/adam/adamig-1-2/datastructures/ADSL/varsets/TrialExperience", "title": "ADSL Trial Experience Variables", "type": "Variable Set"}, "priorVersion": {"href": "/mdr/adam/adamig-1-1/datastructures/ADSL/variables/ENRLyDT", "title": "Date of Enrollment y", "type": "Analysis Variable"}, "self": {"href": "/mdr/adam/adamig-1-2/datastructures/ADSL/variables/ENRLyDT", "title": "Date of Enrollment y", "type": "Analysis Variable"}}, "core": "Perm", "description": "This variable may be used in the case where there are multiple enrollment dates within a study. This date does not need to repeat the date in ENRLDT. 'y' can start with 1 but it is not required to start with 1.", "label": "Date of Enrollment y", "name": "ENRLyDT", "ordinal": "108", "simpleDatatype": "Num"}, {"_links": {"parentDatastructure": {"href": "/mdr/adam/adamig-1-2/datastructures/ADSL", "title": "Subject-Level Analysis Dataset Structure", "type": "Data Structure"}, "parentProduct": {"href": "/mdr/adam/adamig-1-2", "title": "Analysis Data Model Implementation Guide Version 1.2", "type": "Implementation Guide"}, "parentVariableSet": {"href": "/mdr/adam/adamig-1-2/datastructures/ADSL/varsets/TrialExperience", "title": "ADSL Trial Experience Variables", "type": "Variable Set"}, "priorVersion": {"href": "/mdr/adam/adamig-1-1/datastructures/ADSL/variables/RANDyDT", "title": "Date of Randomization y", "type": "Analysis Variable"}, "self": {"href": "/mdr/adam/adamig-1-2/datastructures/ADSL/variables/RANDyDT", "title": "Date of Randomization y", "type": "Analysis Variable"}}, "core": "Perm", "description": "This variable may be used in the case where there are multiple randomization dates within a study. This date does not need to repeat the date in RANDDT. 'y' can start with 1 but it is not required to start with 1.", "label": "Date of Randomization y", "name": "RANDyDT", "ordinal": "109", "simpleDatatype": "Num"}, {"_links": {"parentDatastructure": {"href": "/mdr/adam/adamig-1-2/datastructures/ADSL", "title": "Subject-Level Analysis Dataset Structure", "type": "Data Structure"}, "parentProduct": {"href": "/mdr/adam/adamig-1-2", "title": "Analysis Data Model Implementation Guide Version 1.2", "type": "Implementation Guide"}, "parentVariableSet": {"href": "/mdr/adam/adamig-1-2/datastructures/ADSL/varsets/TrialExperience", "title": "ADSL Trial Experience Variables", "type": "Variable Set"}, "priorVersion": {"href": "/mdr/adam/adamig-1-1/datastructures/ADSL/variables/LSTALVDT", "title": "Date Last Known Alive", "type": "Analysis Variable"}, "self": {"href": "/mdr/adam/adamig-1-2/datastructures/ADSL/variables/LSTALVDT", "title": "Date Last Known Alive", "type": "Analysis Variable"}}, "core": "Perm", "description": "If this variable is included in ADSL, the best practice is to populate it for everyone. If the derivation for subjects who died differs from the derivation for subjects who are not known to have died, the differences should be noted in metadata.", "label": "Date Last Known Alive", "name": "LSTALVDT", "ordinal": "110", "simpleDatatype": "Num"}, {"_links": {"parentDatastructure": {"href": "/mdr/adam/adamig-1-2/datastructures/ADSL", "title": "Subject-Level Analysis Dataset Structure", "type": "Data Structure"}, "parentProduct": {"href": "/mdr/adam/adamig-1-2", "title": "Analysis Data Model Implementation Guide Version 1.2", "type": "Implementation Guide"}, "parentVariableSet": {"href": "/mdr/adam/adamig-1-2/datastructures/ADSL/varsets/TrialExperience", "title": "ADSL Trial Experience Variables", "type": "Variable Set"}, "priorVersion": {"href": "/mdr/adam/adamig-1-1/datastructures/ADSL/variables/TRCMP", "title": "Treatment Compliance (%)", "type": "Analysis Variable"}, "self": {"href": "/mdr/adam/adamig-1-2/datastructures/ADSL/variables/TRCMP", "title": "Treatment Compliance (%)", "type": "Analysis Variable"}}, "core": "Perm", "description": "Overall percent compliance with treatment in the trial. TRCMP may be useful for inclusion in ADSL for reasons such as defining subgroups and/or populations.", "label": "Treatment Compliance (%)", "name": "TRCMP", "ordinal": "111", "simpleDatatype": "Num"}, {"_links": {"parentDatastructure": {"href": "/mdr/adam/adamig-1-2/datastructures/ADSL", "title": "Subject-Level Analysis Dataset Structure", "type": "Data Structure"}, "parentProduct": {"href": "/mdr/adam/adamig-1-2", "title": "Analysis Data Model Implementation Guide Version 1.2", "type": "Implementation Guide"}, "parentVariableSet": {"href": "/mdr/adam/adamig-1-2/datastructures/ADSL/varsets/TrialExperience", "title": "ADSL Trial Experience Variables", "type": "Variable Set"}, "priorVersion": {"href": "/mdr/adam/adamig-1-1/datastructures/ADSL/variables/TRCMPGy", "title": "Treatment Compliance (%) Group y", "type": "Analysis Variable"}, "self": {"href": "/mdr/adam/adamig-1-2/datastructures/ADSL/variables/TRCMPGy", "title": "Treatment Compliance (%) Group y", "type": "Analysis Variable"}}, "core": "Perm", "description": "Grouping 'y' of TRCMP, treatment compliance percentage.", "label": "Treatment Compliance (%) Group y", "name": "TRCMPGy", "ordinal": "112", "simpleDatatype": "Char"}, {"_links": {"parentDatastructure": {"href": "/mdr/adam/adamig-1-2/datastructures/ADSL", "title": "Subject-Level Analysis Dataset Structure", "type": "Data Structure"}, "parentProduct": {"href": "/mdr/adam/adamig-1-2", "title": "Analysis Data Model Implementation Guide Version 1.2", "type": "Implementation Guide"}, "parentVariableSet": {"href": "/mdr/adam/adamig-1-2/datastructures/ADSL/varsets/TrialExperience", "title": "ADSL Trial Experience Variables", "type": "Variable Set"}, "priorVersion": {"href": "/mdr/adam/adamig-1-1/datastructures/ADSL/variables/TRCMPGyN", "title": "Treatment Compliance (%) Group y (N)", "type": "Analysis Variable"}, "self": {"href": "/mdr/adam/adamig-1-2/datastructures/ADSL/variables/TRCMPGyN", "title": "Treatment Compliance (%) Group y (N)", "type": "Analysis Variable"}}, "core": "Perm", "description": "Numeric representation of treatment compliance (%) grouping 'y'. There must be a one-to-one relationship between TRCMPGyN and TRCMPGy within a study. \n TRCMPGyN cannot be present unless TRCMPGy is also present. When TRCMPGy and TRCMPGyN are present, then on a given record, either both must be populated or both must be null.", "label": "Treatment Compliance (%) Group y (N)", "name": "TRCMPGyN", "ordinal": "113", "simpleDatatype": "Num"}, {"_links": {"parentDatastructure": {"href": "/mdr/adam/adamig-1-2/datastructures/ADSL", "title": "Subject-Level Analysis Dataset Structure", "type": "Data Structure"}, "parentProduct": {"href": "/mdr/adam/adamig-1-2", "title": "Analysis Data Model Implementation Guide Version 1.2", "type": "Implementation Guide"}, "parentVariableSet": {"href": "/mdr/adam/adamig-1-2/datastructures/ADSL/varsets/TrialExperience", "title": "ADSL Trial Experience Variables", "type": "Variable Set"}, "priorVersion": {"href": "/mdr/adam/adamig-1-1/datastructures/ADSL/variables/TRxxDURD", "title": "Treatment Duration in Period xx (Days)", "type": "Analysis Variable"}, "self": {"href": "/mdr/adam/adamig-1-2/datastructures/ADSL/variables/TRxxDURD", "title": "Treatment Duration in Period xx (Days)", "type": "Analysis Variable"}}, "core": "Perm", "description": "Treatment duration for period xx as measured in days. More than one of TRxxDURD, TRxxDURM, and TRxxDURY can be populated, but each represents the entire duration in its respective units.", "label": "Treatment Duration in Period xx (Days)", "name": "TRxxDURD", "ordinal": "114", "simpleDatatype": "Num"}, {"_links": {"parentDatastructure": {"href": "/mdr/adam/adamig-1-2/datastructures/ADSL", "title": "Subject-Level Analysis Dataset Structure", "type": "Data Structure"}, "parentProduct": {"href": "/mdr/adam/adamig-1-2", "title": "Analysis Data Model Implementation Guide Version 1.2", "type": "Implementation Guide"}, "parentVariableSet": {"href": "/mdr/adam/adamig-1-2/datastructures/ADSL/varsets/TrialExperience", "title": "ADSL Trial Experience Variables", "type": "Variable Set"}, "priorVersion": {"href": "/mdr/adam/adamig-1-1/datastructures/ADSL/variables/TRxxDURM", "title": "Treatment Duration in Period xx (Months)", "type": "Analysis Variable"}, "self": {"href": "/mdr/adam/adamig-1-2/datastructures/ADSL/variables/TRxxDURM", "title": "Treatment Duration in Period xx (Months)", "type": "Analysis Variable"}}, "core": "Perm", "description": "Treatment duration for period xx, as measure in months. More than one of TRxxDURD, TRxxDURM, and TRxxDURY can be populated, but each represents the entire duration in its respective units.", "label": "Treatment Duration in Period xx (Months)", "name": "TRxxDURM", "ordinal": "115", "simpleDatatype": "Num"}, {"_links": {"parentDatastructure": {"href": "/mdr/adam/adamig-1-2/datastructures/ADSL", "title": "Subject-Level Analysis Dataset Structure", "type": "Data Structure"}, "parentProduct": {"href": "/mdr/adam/adamig-1-2", "title": "Analysis Data Model Implementation Guide Version 1.2", "type": "Implementation Guide"}, "parentVariableSet": {"href": "/mdr/adam/adamig-1-2/datastructures/ADSL/varsets/TrialExperience", "title": "ADSL Trial Experience Variables", "type": "Variable Set"}, "priorVersion": {"href": "/mdr/adam/adamig-1-1/datastructures/ADSL/variables/TRxxDURY", "title": "Treatment Duration in Period xx (Years)", "type": "Analysis Variable"}, "self": {"href": "/mdr/adam/adamig-1-2/datastructures/ADSL/variables/TRxxDURY", "title": "Treatment Duration in Period xx (Years)", "type": "Analysis Variable"}}, "core": "Perm", "description": "Treatment duration for period xx, as measured in years. More than one of TRxxDURD, TRxxDURM, and TRxxDURY can be populated, but each represents the entire duration in its respective units.", "label": "Treatment Duration in Period xx (Years)", "name": "TRxxDURY", "ordinal": "116", "simpleDatatype": "Num"}, {"_links": {"parentDatastructure": {"href": "/mdr/adam/adamig-1-2/datastructures/ADSL", "title": "Subject-Level Analysis Dataset Structure", "type": "Data Structure"}, "parentProduct": {"href": "/mdr/adam/adamig-1-2", "title": "Analysis Data Model Implementation Guide Version 1.2", "type": "Implementation Guide"}, "parentVariableSet": {"href": "/mdr/adam/adamig-1-2/datastructures/ADSL/varsets/TrialExperience", "title": "ADSL Trial Experience Variables", "type": "Variable Set"}, "priorVersion": {"href": "/mdr/adam/adamig-1-1/datastructures/ADSL/variables/TRTDURD", "title": "Total Treatment Duration (Days)", "type": "Analysis Variable"}, "self": {"href": "/mdr/adam/adamig-1-2/datastructures/ADSL/variables/TRTDURD", "title": "Total Treatment Duration (Days)", "type": "Analysis Variable"}}, "core": "Perm", "description": "Total treatment duration, as measured in days. More than one of TRTDURD, TRTDURM, and TRTDURY can be populated, but each represents the entire duration in its respective units.", "label": "Total Treatment Duration (Days)", "name": "TRTDURD", "ordinal": "117", "simpleDatatype": "Num"}, {"_links": {"parentDatastructure": {"href": "/mdr/adam/adamig-1-2/datastructures/ADSL", "title": "Subject-Level Analysis Dataset Structure", "type": "Data Structure"}, "parentProduct": {"href": "/mdr/adam/adamig-1-2", "title": "Analysis Data Model Implementation Guide Version 1.2", "type": "Implementation Guide"}, "parentVariableSet": {"href": "/mdr/adam/adamig-1-2/datastructures/ADSL/varsets/TrialExperience", "title": "ADSL Trial Experience Variables", "type": "Variable Set"}, "priorVersion": {"href": "/mdr/adam/adamig-1-1/datastructures/ADSL/variables/TRTDURM", "title": "Total Treatment Duration (Months)", "type": "Analysis Variable"}, "self": {"href": "/mdr/adam/adamig-1-2/datastructures/ADSL/variables/TRTDURM", "title": "Total Treatment Duration (Months)", "type": "Analysis Variable"}}, "core": "Perm", "description": "Total treatment duration, as measured in months. More than one of TRTDURD, TRTDURM, and TRTDURY can be populated, but each represents the entire duration in its respective units.", "label": "Total Treatment Duration (Months)", "name": "TRTDURM", "ordinal": "118", "simpleDatatype": "Num"}, {"_links": {"parentDatastructure": {"href": "/mdr/adam/adamig-1-2/datastructures/ADSL", "title": "Subject-Level Analysis Dataset Structure", "type": "Data Structure"}, "parentProduct": {"href": "/mdr/adam/adamig-1-2", "title": "Analysis Data Model Implementation Guide Version 1.2", "type": "Implementation Guide"}, "parentVariableSet": {"href": "/mdr/adam/adamig-1-2/datastructures/ADSL/varsets/TrialExperience", "title": "ADSL Trial Experience Variables", "type": "Variable Set"}, "priorVersion": {"href": "/mdr/adam/adamig-1-1/datastructures/ADSL/variables/TRTDURY", "title": "Total Treatment Duration (Years)", "type": "Analysis Variable"}, "self": {"href": "/mdr/adam/adamig-1-2/datastructures/ADSL/variables/TRTDURY", "title": "Total Treatment Duration (Years)", "type": "Analysis Variable"}}, "core": "Perm", "description": "Total treatment duration, as measured in years. More than one of TRTDURD, TRTDURM, and TRTDURY can be populated, but each represents the entire duration in its respective units.", "label": "Total Treatment Duration (Years)", "name": "TRTDURY", "ordinal": "119", "simpleDatatype": "Num"}, {"_links": {"parentDatastructure": {"href": "/mdr/adam/adamig-1-2/datastructures/ADSL", "title": "Subject-Level Analysis Dataset Structure", "type": "Data Structure"}, "parentProduct": {"href": "/mdr/adam/adamig-1-2", "title": "Analysis Data Model Implementation Guide Version 1.2", "type": "Implementation Guide"}, "parentVariableSet": {"href": "/mdr/adam/adamig-1-2/datastructures/ADSL/varsets/TrialExperience", "title": "ADSL Trial Experience Variables", "type": "Variable Set"}, "priorVersion": {"href": "/mdr/adam/adamig-1-1/datastructures/ADSL/variables/DTHDT", "title": "Date of Death", "type": "Analysis Variable"}, "self": {"href": "/mdr/adam/adamig-1-2/datastructures/ADSL/variables/DTHDT", "title": "Date of Death", "type": "Analysis Variable"}}, "core": "Perm", "description": "Date of subject's death. Derived from DM.DTHDTC.", "label": "Date of Death", "name": "DTHDT", "ordinal": "120", "simpleDatatype": "Num"}, {"_links": {"codelist": [{"href": "/mdr/root/ct/adamct/codelists/C81223", "title": "Version-agnostic anchor resource for codelist C81223", "type": "Root Value Domain"}], "parentDatastructure": {"href": "/mdr/adam/adamig-1-2/datastructures/ADSL", "title": "Subject-Level Analysis Dataset Structure", "type": "Data Structure"}, "parentProduct": {"href": "/mdr/adam/adamig-1-2", "title": "Analysis Data Model Implementation Guide Version 1.2", "type": "Implementation Guide"}, "parentVariableSet": {"href": "/mdr/adam/adamig-1-2/datastructures/ADSL/varsets/TrialExperience", "title": "ADSL Trial Experience Variables", "type": "Variable Set"}, "priorVersion": {"href": "/mdr/adam/adamig-1-1/datastructures/ADSL/variables/DTHDTF", "title": "Date of Death Imputation Flag", "type": "Analysis Variable"}, "self": {"href": "/mdr/adam/adamig-1-2/datastructures/ADSL/variables/DTHDTF", "title": "Date of Death Imputation Flag", "type": "Analysis Variable"}}, "codelistSubmissionValues": ["DATEFL"], "core": "Cond", "description": "Imputation flag for date of subject's death. If DTHDT was imputed, DTHDTF must be populated and is required. See Section 3.1.3, Date and Time Imputation Flag Variables.", "label": "Date of Death Imputation Flag", "name": "DTHDTF", "ordinal": "121", "simpleDatatype": "Char"}, {"_links": {"parentDatastructure": {"href": "/mdr/adam/adamig-1-2/datastructures/ADSL", "title": "Subject-Level Analysis Dataset Structure", "type": "Data Structure"}, "parentProduct": {"href": "/mdr/adam/adamig-1-2", "title": "Analysis Data Model Implementation Guide Version 1.2", "type": "Implementation Guide"}, "parentVariableSet": {"href": "/mdr/adam/adamig-1-2/datastructures/ADSL/varsets/TrialExperience", "title": "ADSL Trial Experience Variables", "type": "Variable Set"}, "priorVersion": {"href": "/mdr/adam/adamig-1-1/datastructures/ADSL/variables/DTHCAUS", "title": "Cause of Death", "type": "Analysis Variable"}, "self": {"href": "/mdr/adam/adamig-1-2/datastructures/ADSL/variables/DTHCAUS", "title": "Cause of Death", "type": "Analysis Variable"}}, "core": "Perm", "description": "Cause of Death.", "label": "Cause of Death", "name": "DTHCAUS", "ordinal": "122", "simpleDatatype": "Char"}, {"_links": {"parentDatastructure": {"href": "/mdr/adam/adamig-1-2/datastructures/ADSL", "title": "Subject-Level Analysis Dataset Structure", "type": "Data Structure"}, "parentProduct": {"href": "/mdr/adam/adamig-1-2", "title": "Analysis Data Model Implementation Guide Version 1.2", "type": "Implementation Guide"}, "parentVariableSet": {"href": "/mdr/adam/adamig-1-2/datastructures/ADSL/varsets/TrialExperience", "title": "ADSL Trial Experience Variables", "type": "Variable Set"}, "priorVersion": {"href": "/mdr/adam/adamig-1-1/datastructures/ADSL/variables/DTHCAUSN", "title": "Cause of Death (N)", "type": "Analysis Variable"}, "self": {"href": "/mdr/adam/adamig-1-2/datastructures/ADSL/variables/DTHCAUSN", "title": "Cause of Death (N)", "type": "Analysis Variable"}}, "core": "Perm", "description": "Numeric representation of cause of death. There must be a one-to-one relationship between DTHCAUSN and DTHCAUS within a study. \n DTHCAUSN cannot be present unless DTHCAUS is also present. When DTHCAUS and DTHCAUSN are present, then on a given record, either both must be populated or both must be null.", "label": "Cause of Death (N)", "name": "DTHCAUSN", "ordinal": "123", "simpleDatatype": "Num"}, {"_links": {"parentDatastructure": {"href": "/mdr/adam/adamig-1-2/datastructures/ADSL", "title": "Subject-Level Analysis Dataset Structure", "type": "Data Structure"}, "parentProduct": {"href": "/mdr/adam/adamig-1-2", "title": "Analysis Data Model Implementation Guide Version 1.2", "type": "Implementation Guide"}, "parentVariableSet": {"href": "/mdr/adam/adamig-1-2/datastructures/ADSL/varsets/TrialExperience", "title": "ADSL Trial Experience Variables", "type": "Variable Set"}, "priorVersion": {"href": "/mdr/adam/adamig-1-1/datastructures/ADSL/variables/DTHCGRy", "title": "Cause of Death Group y", "type": "Analysis Variable"}, "self": {"href": "/mdr/adam/adamig-1-2/datastructures/ADSL/variables/DTHCGRy", "title": "Cause of Death Group y", "type": "Analysis Variable"}}, "core": "Perm", "description": "Grouping 'y' of DTHCAUS, the subject's cause of death.", "label": "Cause of Death Group y", "name": "DTHCGRy", "ordinal": "124", "simpleDatatype": "Char"}, {"_links": {"parentDatastructure": {"href": "/mdr/adam/adamig-1-2/datastructures/ADSL", "title": "Subject-Level Analysis Dataset Structure", "type": "Data Structure"}, "parentProduct": {"href": "/mdr/adam/adamig-1-2", "title": "Analysis Data Model Implementation Guide Version 1.2", "type": "Implementation Guide"}, "parentVariableSet": {"href": "/mdr/adam/adamig-1-2/datastructures/ADSL/varsets/TrialExperience", "title": "ADSL Trial Experience Variables", "type": "Variable Set"}, "priorVersion": {"href": "/mdr/adam/adamig-1-1/datastructures/ADSL/variables/DTHCGRyN", "title": "Cause of Death Group y (N)", "type": "Analysis Variable"}, "self": {"href": "/mdr/adam/adamig-1-2/datastructures/ADSL/variables/DTHCGRyN", "title": "Cause of Death Group y (N)", "type": "Analysis Variable"}}, "core": "Perm", "description": "Numeric representation of grouping 'y' of the subject's cause of death. There must be a one-to-one relationship between DTHCGRyN and DTHCGRy within a study. \n DTHCGyN cannot be present unless DTHCGy is also present. When DTHCGy and DTHCGyN are present, then on a given record, either both must be populated or both must be null.", "label": "Cause of Death Group y (N)", "name": "DTHCGRyN", "ordinal": "125", "simpleDatatype": "Num"}], "description": " ", "label": "ADSL Trial Experience Variables", "name": "TrialExperience", "ordinal": "7"}, {"_links": {"parentDatastructure": {"href": "/mdr/adam/adamig-1-2/datastructures/ADSL", "title": "Subject-Level Analysis Dataset Structure", "type": "Data Structure"}, "parentProduct": {"href": "/mdr/adam/adamig-1-2", "title": "Analysis Data Model Implementation Guide Version 1.2", "type": "Implementation Guide"}, "self": {"href": "/mdr/adam/adamig-1-2/datastructures/ADSL/varsets/Stratification", "title": "ADSL Stratification Variables", "type": "Variable Set"}}, "analysisVariables": [{"_links": {"parentDatastructure": {"href": "/mdr/adam/adamig-1-2/datastructures/ADSL", "title": "Subject-Level Analysis Dataset Structure", "type": "Data Structure"}, "parentProduct": {"href": "/mdr/adam/adamig-1-2", "title": "Analysis Data Model Implementation Guide Version 1.2", "type": "Implementation Guide"}, "parentVariableSet": {"href": "/mdr/adam/adamig-1-2/datastructures/ADSL/varsets/Stratification", "title": "ADSL Stratification Variables", "type": "Variable Set"}, "self": {"href": "/mdr/adam/adamig-1-2/datastructures/ADSL/variables/STRATAR", "title": "Strata Used for Randomization", "type": "Analysis Variable"}}, "core": "Perm", "description": "STRATAR contains the combination of values of the individual stratification factors used for randomization. The exact format should be determined by the sponsor. \n This variable is intended for studies that use stratified randomization. \n For example, '>=50, Treatment experienced, N'", "label": "Strata Used for Randomization", "name": "STRATAR", "ordinal": "126", "simpleDatatype": "Char"}, {"_links": {"parentDatastructure": {"href": "/mdr/adam/adamig-1-2/datastructures/ADSL", "title": "Subject-Level Analysis Dataset Structure", "type": "Data Structure"}, "parentProduct": {"href": "/mdr/adam/adamig-1-2", "title": "Analysis Data Model Implementation Guide Version 1.2", "type": "Implementation Guide"}, "parentVariableSet": {"href": "/mdr/adam/adamig-1-2/datastructures/ADSL/varsets/Stratification", "title": "ADSL Stratification Variables", "type": "Variable Set"}, "self": {"href": "/mdr/adam/adamig-1-2/datastructures/ADSL/variables/STRATARN", "title": "Strata Used for Randomization (N)", "type": "Analysis Variable"}}, "core": "Perm", "description": "Numeric representation of STRATAR. For example, STRATARN=3 when STRATAR='>=50, Treatment experienced, N'. There must be a one-to-one relationship between STRATARN and STRATAR within a study. \n STRATARN cannot be present unless STRATAR is also present. When STRATAR and STRATARN are present, then on a given record, either both must be populated or both must be null.", "label": "Strata Used for Randomization (N)", "name": "STRATARN", "ordinal": "127", "simpleDatatype": "Num"}, {"_links": {"parentDatastructure": {"href": "/mdr/adam/adamig-1-2/datastructures/ADSL", "title": "Subject-Level Analysis Dataset Structure", "type": "Data Structure"}, "parentProduct": {"href": "/mdr/adam/adamig-1-2", "title": "Analysis Data Model Implementation Guide Version 1.2", "type": "Implementation Guide"}, "parentVariableSet": {"href": "/mdr/adam/adamig-1-2/datastructures/ADSL/varsets/Stratification", "title": "ADSL Stratification Variables", "type": "Variable Set"}, "self": {"href": "/mdr/adam/adamig-1-2/datastructures/ADSL/variables/STRATwD", "title": "Description of Stratification Factor w", "type": "Analysis Variable"}}, "core": "Perm", "description": "STRATwD is a full text description of the stratification factor 'w'. This text description will remain constant for all subjects. These descriptive variables are included to quickly and clearly communicate critical study design information as well as to facilitate integration. \n For example, STRAT3D='Hypertension'", "label": "Description of Stratification Factor w", "name": "STRATwD", "ordinal": "128", "simpleDatatype": "Char"}, {"_links": {"parentDatastructure": {"href": "/mdr/adam/adamig-1-2/datastructures/ADSL", "title": "Subject-Level Analysis Dataset Structure", "type": "Data Structure"}, "parentProduct": {"href": "/mdr/adam/adamig-1-2", "title": "Analysis Data Model Implementation Guide Version 1.2", "type": "Implementation Guide"}, "parentVariableSet": {"href": "/mdr/adam/adamig-1-2/datastructures/ADSL/varsets/Stratification", "title": "ADSL Stratification Variables", "type": "Variable Set"}, "self": {"href": "/mdr/adam/adamig-1-2/datastructures/ADSL/variables/STRATwR", "title": "Strat Factor w Value Used for Rand", "type": "Analysis Variable"}}, "core": "Perm", "description": "STRATwR is the subject-level value of the 'w'th' stratification factor used for randomization. \n For example, STRAT3R='N'", "label": "Strat Factor w Value Used for Rand", "name": "STRATwR", "ordinal": "129", "simpleDatatype": "Char"}, {"_links": {"parentDatastructure": {"href": "/mdr/adam/adamig-1-2/datastructures/ADSL", "title": "Subject-Level Analysis Dataset Structure", "type": "Data Structure"}, "parentProduct": {"href": "/mdr/adam/adamig-1-2", "title": "Analysis Data Model Implementation Guide Version 1.2", "type": "Implementation Guide"}, "parentVariableSet": {"href": "/mdr/adam/adamig-1-2/datastructures/ADSL/varsets/Stratification", "title": "ADSL Stratification Variables", "type": "Variable Set"}, "self": {"href": "/mdr/adam/adamig-1-2/datastructures/ADSL/variables/STRATwRN", "title": "Strat Factor w Value Used for Rand (N)", "type": "Analysis Variable"}}, "core": "Perm", "description": "Numeric representation of STRATwR. For example, STRAT3RN=0 when STRAT3R='N'. There must be a one-to-one relationship between STRATwRN and STRATwR within a study. \n STRATwRN cannot be present unless STRATwR is also present. When STRATwR and STRATwRN are present, then on a given record, either both must be populated or both must be null.", "label": "Strat Factor w Value Used for Rand (N)", "name": "STRATwRN", "ordinal": "130", "simpleDatatype": "Num"}, {"_links": {"parentDatastructure": {"href": "/mdr/adam/adamig-1-2/datastructures/ADSL", "title": "Subject-Level Analysis Dataset Structure", "type": "Data Structure"}, "parentProduct": {"href": "/mdr/adam/adamig-1-2", "title": "Analysis Data Model Implementation Guide Version 1.2", "type": "Implementation Guide"}, "parentVariableSet": {"href": "/mdr/adam/adamig-1-2/datastructures/ADSL/varsets/Stratification", "title": "ADSL Stratification Variables", "type": "Variable Set"}, "self": {"href": "/mdr/adam/adamig-1-2/datastructures/ADSL/variables/STRATAV", "title": "Strata from Verification Source", "type": "Analysis Variable"}}, "core": "Perm", "description": "STRATAV contains the entire string value represents the combination of values of the individual stratification factors that should have been used and represents the 'as verified' value. The STRATAV variables are based on the source documentation and are determined after randomization. If the values used for the randomization of a given subject were all correct, then STRATAV will equal STRATAR. Otherwise, one or more components of the text string for STRATAR and STRATAV will be different. \n The exact format should be determined by the sponsor. \n For example, '>=50, Treatment experienced, Y'", "label": "Strata from Verification Source", "name": "STRATAV", "ordinal": "131", "simpleDatatype": "Char"}, {"_links": {"parentDatastructure": {"href": "/mdr/adam/adamig-1-2/datastructures/ADSL", "title": "Subject-Level Analysis Dataset Structure", "type": "Data Structure"}, "parentProduct": {"href": "/mdr/adam/adamig-1-2", "title": "Analysis Data Model Implementation Guide Version 1.2", "type": "Implementation Guide"}, "parentVariableSet": {"href": "/mdr/adam/adamig-1-2/datastructures/ADSL/varsets/Stratification", "title": "ADSL Stratification Variables", "type": "Variable Set"}, "self": {"href": "/mdr/adam/adamig-1-2/datastructures/ADSL/variables/STRATAVN", "title": "Strata from Verification Source (N)", "type": "Analysis Variable"}}, "core": "Perm", "description": "Numeric representation of STRATAV. For example, STRATAVN=4 when STRATVR='>=50, Treatment experienced, Y'. There must be a one-to-one relationship between STRATAVN and STRATAV within a study. \n STRATAVN cannot be present unless STRATAV is also present. When STRATAV and STRATAVN are present, then on a given record, either both must be populated or both must be null.", "label": "Strata from Verification Source (N)", "name": "STRATAVN", "ordinal": "132", "simpleDatatype": "Num"}, {"_links": {"parentDatastructure": {"href": "/mdr/adam/adamig-1-2/datastructures/ADSL", "title": "Subject-Level Analysis Dataset Structure", "type": "Data Structure"}, "parentProduct": {"href": "/mdr/adam/adamig-1-2", "title": "Analysis Data Model Implementation Guide Version 1.2", "type": "Implementation Guide"}, "parentVariableSet": {"href": "/mdr/adam/adamig-1-2/datastructures/ADSL/varsets/Stratification", "title": "ADSL Stratification Variables", "type": "Variable Set"}, "self": {"href": "/mdr/adam/adamig-1-2/datastructures/ADSL/variables/STRATwV", "title": "Strat Factor w Value from Verif Source", "type": "Analysis Variable"}}, "core": "Perm", "description": "STRATwV is the 'as verified' subject-level value of the 'w'th' stratification factor. If the value based on randomization was correct, then STRATwV will equal STRATwR. \n For example, STRAT3V='Y'", "label": "Strat Factor w Value from Verif Source", "name": "STRATwV", "ordinal": "133", "simpleDatatype": "Char"}, {"_links": {"parentDatastructure": {"href": "/mdr/adam/adamig-1-2/datastructures/ADSL", "title": "Subject-Level Analysis Dataset Structure", "type": "Data Structure"}, "parentProduct": {"href": "/mdr/adam/adamig-1-2", "title": "Analysis Data Model Implementation Guide Version 1.2", "type": "Implementation Guide"}, "parentVariableSet": {"href": "/mdr/adam/adamig-1-2/datastructures/ADSL/varsets/Stratification", "title": "ADSL Stratification Variables", "type": "Variable Set"}, "self": {"href": "/mdr/adam/adamig-1-2/datastructures/ADSL/variables/STRATwVN", "title": "Strat Fact w Val from Verif Source (N)", "type": "Analysis Variable"}}, "core": "Perm", "description": "Numeric representation of STRATwV. For example, STRAT3VN=1 when STRAT3V='Y'. There must be a one-to-one relationship between STRATwVN and STRATwV within a study. \n STRATwVN cannot be present unless STRATwV is also present. When STRATwV and STRATwVN are present, then on a given record, either both must be populated or both must be null. \n", "label": "Strat Fact w Val from Verif Source (N)", "name": "STRATwVN", "ordinal": "134", "simpleDatatype": "Num"}], "description": " ", "label": "ADSL Stratification Variables", "name": "Stratification", "ordinal": "8"}, {"_links": {"parentDatastructure": {"href": "/mdr/adam/adamig-1-2/datastructures/ADSL", "title": "Subject-Level Analysis Dataset Structure", "type": "Data Structure"}, "parentProduct": {"href": "/mdr/adam/adamig-1-2", "title": "Analysis Data Model Implementation Guide Version 1.2", "type": "Implementation Guide"}, "priorVersion": {"href": "/mdr/adam/adamig-1-1/datastructures/ADSL/varsets/PopulationIndicator", "title": "ADSL Population Indicator Variables", "type": "Variable Set"}, "self": {"href": "/mdr/adam/adamig-1-2/datastructures/ADSL/varsets/PopulationIndicator", "title": "ADSL Population Indicator Variables", "type": "Variable Set"}}, "analysisVariables": [{"_links": {"parentDatastructure": {"href": "/mdr/adam/adamig-1-2/datastructures/ADSL", "title": "Subject-Level Analysis Dataset Structure", "type": "Data Structure"}, "parentProduct": {"href": "/mdr/adam/adamig-1-2", "title": "Analysis Data Model Implementation Guide Version 1.2", "type": "Implementation Guide"}, "parentVariableSet": {"href": "/mdr/adam/adamig-1-2/datastructures/ADSL/varsets/PopulationIndicator", "title": "ADSL Population Indicator Variables", "type": "Variable Set"}, "priorVersion": {"href": "/mdr/adam/adamig-1-1/datastructures/ADSL/variables/FASFL", "title": "Full Analysis Set Population Flag", "type": "Analysis Variable"}, "self": {"href": "/mdr/adam/adamig-1-2/datastructures/ADSL/variables/FASFL", "title": "Full Analysis Set Population Flag", "type": "Analysis Variable"}}, "core": "Cond", "description": "These flags identify whether or not the subject is included in the specified population. A minimum of one subject-level population flag variable is required in ADSL. \n Not all of the indicators listed here need to be included in ADSL. As stated in Section 3.1.4, Flag Variable Conventions, only those indicators corresponding to populations defined in the statistical analysis plan or populations used as a basis for analysis need be included in ADSL. \n This list of flags is not meant to be all-inclusive. Additional population flags may be added. \n The values of subject-level population flags cannot be blank. If a flag is used, the corresponding numeric version (*FN, where 0 = No and 1 = Yes) of the population flag can also be included. Please also refer to Section 3.1.4, Flag Variable Conventions.", "label": "Full Analysis Set Population Flag", "name": "FASFL", "ordinal": "135", "simpleDatatype": "Char", "valueList": ["N", "Y"]}, {"_links": {"parentDatastructure": {"href": "/mdr/adam/adamig-1-2/datastructures/ADSL", "title": "Subject-Level Analysis Dataset Structure", "type": "Data Structure"}, "parentProduct": {"href": "/mdr/adam/adamig-1-2", "title": "Analysis Data Model Implementation Guide Version 1.2", "type": "Implementation Guide"}, "parentVariableSet": {"href": "/mdr/adam/adamig-1-2/datastructures/ADSL/varsets/PopulationIndicator", "title": "ADSL Population Indicator Variables", "type": "Variable Set"}, "priorVersion": {"href": "/mdr/adam/adamig-1-1/datastructures/ADSL/variables/SAFFL", "title": "Safety Population Flag", "type": "Analysis Variable"}, "self": {"href": "/mdr/adam/adamig-1-2/datastructures/ADSL/variables/SAFFL", "title": "Safety Population Flag", "type": "Analysis Variable"}}, "core": "Cond", "description": "These flags identify whether or not the subject is included in the specified population. A minimum of one subject-level population flag variable is required in ADSL. \n Not all of the indicators listed here need to be included in ADSL. As stated in Section 3.1.4, Flag Variable Conventions, only those indicators corresponding to populations defined in the statistical analysis plan or populations used as a basis for analysis need be included in ADSL. \n This list of flags is not meant to be all-inclusive. Additional population flags may be added. \n The values of subject-level population flags cannot be blank. If a flag is used, the corresponding numeric version (*FN, where 0 = No and 1 = Yes) of the population flag can also be included. Please also refer to Section 3.1.4, Flag Variable Conventions.", "label": "Safety Population Flag", "name": "SAFFL", "ordinal": "136", "simpleDatatype": "Char", "valueList": ["N", "Y"]}, {"_links": {"parentDatastructure": {"href": "/mdr/adam/adamig-1-2/datastructures/ADSL", "title": "Subject-Level Analysis Dataset Structure", "type": "Data Structure"}, "parentProduct": {"href": "/mdr/adam/adamig-1-2", "title": "Analysis Data Model Implementation Guide Version 1.2", "type": "Implementation Guide"}, "parentVariableSet": {"href": "/mdr/adam/adamig-1-2/datastructures/ADSL/varsets/PopulationIndicator", "title": "ADSL Population Indicator Variables", "type": "Variable Set"}, "priorVersion": {"href": "/mdr/adam/adamig-1-1/datastructures/ADSL/variables/ITTFL", "title": "Intent-To-Treat Population Flag", "type": "Analysis Variable"}, "self": {"href": "/mdr/adam/adamig-1-2/datastructures/ADSL/variables/ITTFL", "title": "Intent-To-Treat Population Flag", "type": "Analysis Variable"}}, "core": "Cond", "description": "These flags identify whether or not the subject is included in the specified population. A minimum of one subject-level population flag variable is required in ADSL. \n Not all of the indicators listed here need to be included in ADSL. As stated in Section 3.1.4, Flag Variable Conventions, only those indicators corresponding to populations defined in the statistical analysis plan or populations used as a basis for analysis need be included in ADSL. \n This list of flags is not meant to be all-inclusive. Additional population flags may be added. \n The values of subject-level population flags cannot be blank. If a flag is used, the corresponding numeric version (*FN, where 0 = No and 1 = Yes) of the population flag can also be included. Please also refer to Section 3.1.4, Flag Variable Conventions.", "label": "Intent-To-Treat Population Flag", "name": "ITTFL", "ordinal": "137", "simpleDatatype": "Char", "valueList": ["N", "Y"]}, {"_links": {"parentDatastructure": {"href": "/mdr/adam/adamig-1-2/datastructures/ADSL", "title": "Subject-Level Analysis Dataset Structure", "type": "Data Structure"}, "parentProduct": {"href": "/mdr/adam/adamig-1-2", "title": "Analysis Data Model Implementation Guide Version 1.2", "type": "Implementation Guide"}, "parentVariableSet": {"href": "/mdr/adam/adamig-1-2/datastructures/ADSL/varsets/PopulationIndicator", "title": "ADSL Population Indicator Variables", "type": "Variable Set"}, "priorVersion": {"href": "/mdr/adam/adamig-1-1/datastructures/ADSL/variables/PPROTFL", "title": "Per-Protocol Population Flag", "type": "Analysis Variable"}, "self": {"href": "/mdr/adam/adamig-1-2/datastructures/ADSL/variables/PPROTFL", "title": "Per-Protocol Population Flag", "type": "Analysis Variable"}}, "core": "Cond", "description": "These flags identify whether or not the subject is included in the specified population. A minimum of one subject-level population flag variable is required in ADSL. \n Not all of the indicators listed here need to be included in ADSL. As stated in Section 3.1.4, Flag Variable Conventions, only those indicators corresponding to populations defined in the statistical analysis plan or populations used as a basis for analysis need be included in ADSL. \n This list of flags is not meant to be all-inclusive. Additional population flags may be added. \n The values of subject-level population flags cannot be blank. If a flag is used, the corresponding numeric version (*FN, where 0 = No and 1 = Yes) of the population flag can also be included. Please also refer to Section 3.1.4, Flag Variable Conventions.", "label": "Per-Protocol Population Flag", "name": "PPROTFL", "ordinal": "138", "simpleDatatype": "Char", "valueList": ["N", "Y"]}, {"_links": {"parentDatastructure": {"href": "/mdr/adam/adamig-1-2/datastructures/ADSL", "title": "Subject-Level Analysis Dataset Structure", "type": "Data Structure"}, "parentProduct": {"href": "/mdr/adam/adamig-1-2", "title": "Analysis Data Model Implementation Guide Version 1.2", "type": "Implementation Guide"}, "parentVariableSet": {"href": "/mdr/adam/adamig-1-2/datastructures/ADSL/varsets/PopulationIndicator", "title": "ADSL Population Indicator Variables", "type": "Variable Set"}, "priorVersion": {"href": "/mdr/adam/adamig-1-1/datastructures/ADSL/variables/COMPLFL", "title": "Completers Population Flag", "type": "Analysis Variable"}, "self": {"href": "/mdr/adam/adamig-1-2/datastructures/ADSL/variables/COMPLFL", "title": "Completers Population Flag", "type": "Analysis Variable"}}, "core": "Cond", "description": "These flags identify whether or not the subject is included in the specified population. A minimum of one subject-level population flag variable is required in ADSL. \n Not all of the indicators listed here need to be included in ADSL. As stated in Section 3.1.4, Flag Variable Conventions, only those indicators corresponding to populations defined in the statistical analysis plan or populations used as a basis for analysis need be included in ADSL. \n This list of flags is not meant to be all-inclusive. Additional population flags may be added. \n The values of subject-level population flags cannot be blank. If a flag is used, the corresponding numeric version (*FN, where 0 = No and 1 = Yes) of the population flag can also be included. Please also refer to Section 3.1.4, Flag Variable Conventions.", "label": "Completers Population Flag", "name": "COMPLFL", "ordinal": "139", "simpleDatatype": "Char", "valueList": ["N", "Y"]}, {"_links": {"parentDatastructure": {"href": "/mdr/adam/adamig-1-2/datastructures/ADSL", "title": "Subject-Level Analysis Dataset Structure", "type": "Data Structure"}, "parentProduct": {"href": "/mdr/adam/adamig-1-2", "title": "Analysis Data Model Implementation Guide Version 1.2", "type": "Implementation Guide"}, "parentVariableSet": {"href": "/mdr/adam/adamig-1-2/datastructures/ADSL/varsets/PopulationIndicator", "title": "ADSL Population Indicator Variables", "type": "Variable Set"}, "priorVersion": {"href": "/mdr/adam/adamig-1-1/datastructures/ADSL/variables/RANDFL", "title": "Randomized Population Flag", "type": "Analysis Variable"}, "self": {"href": "/mdr/adam/adamig-1-2/datastructures/ADSL/variables/RANDFL", "title": "Randomized Population Flag", "type": "Analysis Variable"}}, "core": "Cond", "description": "These flags identify whether or not the subject is included in the specified population. A minimum of one subject-level population flag variable is required in ADSL. \n Not all of the indicators listed here need to be included in ADSL. As stated in Section 3.1.4, Flag Variable Conventions, only those indicators corresponding to populations defined in the statistical analysis plan or populations used as a basis for analysis need be included in ADSL. \n This list of flags is not meant to be all-inclusive. Additional population flags may be added. \n The values of subject-level population flags cannot be blank. If a flag is used, the corresponding numeric version (*FN, where 0 = No and 1 = Yes) of the population flag can also be included. Please also refer to Section 3.1.4, Flag Variable Conventions.", "label": "Randomized Population Flag", "name": "RANDFL", "ordinal": "140", "simpleDatatype": "Char", "valueList": ["N", "Y"]}, {"_links": {"parentDatastructure": {"href": "/mdr/adam/adamig-1-2/datastructures/ADSL", "title": "Subject-Level Analysis Dataset Structure", "type": "Data Structure"}, "parentProduct": {"href": "/mdr/adam/adamig-1-2", "title": "Analysis Data Model Implementation Guide Version 1.2", "type": "Implementation Guide"}, "parentVariableSet": {"href": "/mdr/adam/adamig-1-2/datastructures/ADSL/varsets/PopulationIndicator", "title": "ADSL Population Indicator Variables", "type": "Variable Set"}, "priorVersion": {"href": "/mdr/adam/adamig-1-1/datastructures/ADSL/variables/ENRLFL", "title": "Enrolled Population Flag", "type": "Analysis Variable"}, "self": {"href": "/mdr/adam/adamig-1-2/datastructures/ADSL/variables/ENRLFL", "title": "Enrolled Population Flag", "type": "Analysis Variable"}}, "core": "Cond", "description": "These flags identify whether or not the subject is included in the specified population. A minimum of one subject-level population flag variable is required in ADSL. \n Not all of the indicators listed here need to be included in ADSL. As stated in Section 3.1.4, Flag Variable Conventions, only those indicators corresponding to populations defined in the statistical analysis plan or populations used as a basis for analysis need be included in ADSL. \n This list of flags is not meant to be all-inclusive. Additional population flags may be added. \n The values of subject-level population flags cannot be blank. If a flag is used, the corresponding numeric version (*FN, where 0 = No and 1 = Yes) of the population flag can also be included. Please also refer to Section 3.1.4, Flag Variable Conventions.", "label": "Enrolled Population Flag", "name": "ENRLFL", "ordinal": "141", "simpleDatatype": "Char", "valueList": ["N", "Y"]}], "description": " ", "label": "ADSL Population Indicator Variables", "name": "PopulationIndicator", "ordinal": "9"}], "class": "ADSL", "description": "One record per subject.", "label": "Subject-Level Analysis Dataset Structure", "name": "ADSL", "ordinal": "1"}, {"_links": {"parentProduct": {"href": "/mdr/adam/adamig-1-2", "title": "Analysis Data Model Implementation Guide Version 1.2", "type": "Implementation Guide"}, "priorVersion": {"href": "/mdr/adam/adamig-1-1/datastructures/BDS", "title": "Basic Data Structure", "type": "Data Structure"}, "self": {"href": "/mdr/adam/adamig-1-2/datastructures/BDS", "title": "Basic Data Structure", "type": "Data Structure"}}, "analysisVariableSets": [{"_links": {"parentDatastructure": {"href": "/mdr/adam/adamig-1-2/datastructures/BDS", "title": "Basic Data Structure", "type": "Data Structure"}, "parentProduct": {"href": "/mdr/adam/adamig-1-2", "title": "Analysis Data Model Implementation Guide Version 1.2", "type": "Implementation Guide"}, "priorVersion": {"href": "/mdr/adam/adamig-1-1/datastructures/BDS/varsets/Identifier", "title": "Identifier Variables for BDS Datasets", "type": "Variable Set"}, "self": {"href": "/mdr/adam/adamig-1-2/datastructures/BDS/varsets/Identifier", "title": "BDS Identifier Variables", "type": "Variable Set"}}, "analysisVariables": [{"_links": {"parentDatastructure": {"href": "/mdr/adam/adamig-1-2/datastructures/BDS", "title": "Basic Data Structure", "type": "Data Structure"}, "parentProduct": {"href": "/mdr/adam/adamig-1-2", "title": "Analysis Data Model Implementation Guide Version 1.2", "type": "Implementation Guide"}, "parentVariableSet": {"href": "/mdr/adam/adamig-1-2/datastructures/BDS/varsets/Identifier", "title": "BDS Identifier Variables", "type": "Variable Set"}, "priorVersion": {"href": "/mdr/adam/adamig-1-1/datastructures/BDS/variables/STUDYID", "title": "Study Identifier", "type": "Analysis Variable"}, "self": {"href": "/mdr/adam/adamig-1-2/datastructures/BDS/variables/STUDYID", "title": "Study Identifier", "type": "Analysis Variable"}}, "core": "Req", "description": "DM.STUDYID, ADSL STUDYID, and/or STUDYID from another ADaM or SDTM dataset appropriate to the analysis.", "label": "Study Identifier", "name": "STUDYID", "ordinal": "142", "simpleDatatype": "Char"}, {"_links": {"parentDatastructure": {"href": "/mdr/adam/adamig-1-2/datastructures/BDS", "title": "Basic Data Structure", "type": "Data Structure"}, "parentProduct": {"href": "/mdr/adam/adamig-1-2", "title": "Analysis Data Model Implementation Guide Version 1.2", "type": "Implementation Guide"}, "parentVariableSet": {"href": "/mdr/adam/adamig-1-2/datastructures/BDS/varsets/Identifier", "title": "BDS Identifier Variables", "type": "Variable Set"}, "priorVersion": {"href": "/mdr/adam/adamig-1-1/datastructures/BDS/variables/USUBJID", "title": "Unique Subject Identifier", "type": "Analysis Variable"}, "self": {"href": "/mdr/adam/adamig-1-2/datastructures/BDS/variables/USUBJID", "title": "Unique Subject Identifier", "type": "Analysis Variable"}}, "core": "Req", "description": "DM.USUBJID, ADSL.USUBJID, and/or USUBJID from another ADaM or SDTM dataset appropriate to the analysis.", "label": "Unique Subject Identifier", "name": "USUBJID", "ordinal": "143", "simpleDatatype": "Char"}, {"_links": {"parentDatastructure": {"href": "/mdr/adam/adamig-1-2/datastructures/BDS", "title": "Basic Data Structure", "type": "Data Structure"}, "parentProduct": {"href": "/mdr/adam/adamig-1-2", "title": "Analysis Data Model Implementation Guide Version 1.2", "type": "Implementation Guide"}, "parentVariableSet": {"href": "/mdr/adam/adamig-1-2/datastructures/BDS/varsets/Identifier", "title": "BDS Identifier Variables", "type": "Variable Set"}, "priorVersion": {"href": "/mdr/adam/adamig-1-1/datastructures/BDS/variables/SUBJID", "title": "Subject Identifier for the Study", "type": "Analysis Variable"}, "self": {"href": "/mdr/adam/adamig-1-2/datastructures/BDS/variables/SUBJID", "title": "Subject Identifier for the Study", "type": "Analysis Variable"}}, "core": "Perm", "description": "DM.SUBJID, ADSL.SUBJID, and/or SUBJID from another ADaM dataset appropriate to the analysis. SUBJID is required in ADSL, but permissible in other datasets.", "label": "Subject Identifier for the Study", "name": "SUBJID", "ordinal": "144", "simpleDatatype": "Char"}, {"_links": {"parentDatastructure": {"href": "/mdr/adam/adamig-1-2/datastructures/BDS", "title": "Basic Data Structure", "type": "Data Structure"}, "parentProduct": {"href": "/mdr/adam/adamig-1-2", "title": "Analysis Data Model Implementation Guide Version 1.2", "type": "Implementation Guide"}, "parentVariableSet": {"href": "/mdr/adam/adamig-1-2/datastructures/BDS/varsets/Identifier", "title": "BDS Identifier Variables", "type": "Variable Set"}, "priorVersion": {"href": "/mdr/adam/adamig-1-1/datastructures/BDS/variables/SITEID", "title": "Study Site Identifier", "type": "Analysis Variable"}, "self": {"href": "/mdr/adam/adamig-1-2/datastructures/BDS/variables/SITEID", "title": "Study Site Identifier", "type": "Analysis Variable"}}, "core": "Perm", "description": "DM.SITEID, ADSL.SITEID, and/or SITEID from another ADaM dataset appropriate to the analysis. SITEID is required in ADSL, but permissible in other datasets.", "label": "Study Site Identifier", "name": "SITEID", "ordinal": "145", "simpleDatatype": "Char"}, {"_links": {"parentDatastructure": {"href": "/mdr/adam/adamig-1-2/datastructures/BDS", "title": "Basic Data Structure", "type": "Data Structure"}, "parentProduct": {"href": "/mdr/adam/adamig-1-2", "title": "Analysis Data Model Implementation Guide Version 1.2", "type": "Implementation Guide"}, "parentVariableSet": {"href": "/mdr/adam/adamig-1-2/datastructures/BDS/varsets/Identifier", "title": "BDS Identifier Variables", "type": "Variable Set"}, "priorVersion": {"href": "/mdr/adam/adamig-1-1/datastructures/BDS/variables/ASEQ", "title": "Analysis Sequence Number", "type": "Analysis Variable"}, "self": {"href": "/mdr/adam/adamig-1-2/datastructures/BDS/variables/ASEQ", "title": "Analysis Sequence Number", "type": "Analysis Variable"}}, "core": "Perm", "description": "Sequence number given to ensure uniqueness of subject records within an ADaM dataset. As long as values are unique within a subject within the dataset, any valid number can be used for ASEQ. ASEQ uniquely indexes records within a subject within an ADaM dataset. \n ASEQ is useful for traceability when the dataset is used as input to another ADaM dataset. To refer to a record in a predecessor ADaM dataset, set SRCDOM to the name of the predecessor dataset, and set SRCSEQ to the value of ASEQ in the predecessor dataset.", "label": "Analysis Sequence Number", "name": "ASEQ", "ordinal": "146", "simpleDatatype": "Num"}], "description": " ", "label": "BDS Identifier Variables", "name": "Identifier", "ordinal": "1"}, {"_links": {"parentDatastructure": {"href": "/mdr/adam/adamig-1-2/datastructures/BDS", "title": "Basic Data Structure", "type": "Data Structure"}, "parentProduct": {"href": "/mdr/adam/adamig-1-2", "title": "Analysis Data Model Implementation Guide Version 1.2", "type": "Implementation Guide"}, "priorVersion": {"href": "/mdr/adam/adamig-1-1/datastructures/BDS/varsets/RecordLevelTreatment", "title": "Record-Level Treatment Variables for BDS Datasets ", "type": "Variable Set"}, "self": {"href": "/mdr/adam/adamig-1-2/datastructures/BDS/varsets/RecordLevelTreatmentDose", "title": "BDS Record-Level Treatment and Dose Variables", "type": "Variable Set"}}, "analysisVariables": [{"_links": {"parentDatastructure": {"href": "/mdr/adam/adamig-1-2/datastructures/BDS", "title": "Basic Data Structure", "type": "Data Structure"}, "parentProduct": {"href": "/mdr/adam/adamig-1-2", "title": "Analysis Data Model Implementation Guide Version 1.2", "type": "Implementation Guide"}, "parentVariableSet": {"href": "/mdr/adam/adamig-1-2/datastructures/BDS/varsets/RecordLevelTreatmentDose", "title": "BDS Record-Level Treatment and Dose Variables", "type": "Variable Set"}, "priorVersion": {"href": "/mdr/adam/adamig-1-1/datastructures/BDS/variables/TRTP", "title": "Planned Treatment", "type": "Analysis Variable"}, "self": {"href": "/mdr/adam/adamig-1-2/datastructures/BDS/variables/TRTP", "title": "Planned Treatment", "type": "Analysis Variable"}}, "core": "Cond", "description": "TRTP is a record-level identifier that represents the planned treatment attributed to a record for analysis purposes. TRTP indicates how treatment varies by record within a subject and enables analysis of crossover and other designs. Though there is no requirement that TRTP will correspond to the TRTxxP as defined by the record's value of APERIOD, if populated, TRTP must match at least one value of the character planned treatment variables in ADSL (e.g., TRTxxP, TRTSEQP, TRxxPGy). \n As noted previously, at least one treatment variable is required even in non-randomized trials. This requirement is satisfied by any subject-level or record-level treatment variables (e.g., TRTxxP, TRTP, TRTA). Even if not used for analysis, any ADSL treatment variable may be included in the BDS dataset.", "label": "Planned Treatment", "name": "TRTP", "ordinal": "147", "simpleDatatype": "Char"}, {"_links": {"parentDatastructure": {"href": "/mdr/adam/adamig-1-2/datastructures/BDS", "title": "Basic Data Structure", "type": "Data Structure"}, "parentProduct": {"href": "/mdr/adam/adamig-1-2", "title": "Analysis Data Model Implementation Guide Version 1.2", "type": "Implementation Guide"}, "parentVariableSet": {"href": "/mdr/adam/adamig-1-2/datastructures/BDS/varsets/RecordLevelTreatmentDose", "title": "BDS Record-Level Treatment and Dose Variables", "type": "Variable Set"}, "priorVersion": {"href": "/mdr/adam/adamig-1-1/datastructures/BDS/variables/TRTPN", "title": "Planned Treatment (N)", "type": "Analysis Variable"}, "self": {"href": "/mdr/adam/adamig-1-2/datastructures/BDS/variables/TRTPN", "title": "Planned Treatment (N)", "type": "Analysis Variable"}}, "core": "Perm", "description": "Numeric representation of TRTP. There must be a one-to-one relationship between TRTPN and TRTP within a study. \n TRTPN cannot be present unless TRTP is also present. When TRTP and TRTPN are present, then on a given record, either both must be populated or both must be null.", "label": "Planned Treatment (N)", "name": "TRTPN", "ordinal": "148", "simpleDatatype": "Num"}, {"_links": {"parentDatastructure": {"href": "/mdr/adam/adamig-1-2/datastructures/BDS", "title": "Basic Data Structure", "type": "Data Structure"}, "parentProduct": {"href": "/mdr/adam/adamig-1-2", "title": "Analysis Data Model Implementation Guide Version 1.2", "type": "Implementation Guide"}, "parentVariableSet": {"href": "/mdr/adam/adamig-1-2/datastructures/BDS/varsets/RecordLevelTreatmentDose", "title": "BDS Record-Level Treatment and Dose Variables", "type": "Variable Set"}, "priorVersion": {"href": "/mdr/adam/adamig-1-1/datastructures/BDS/variables/TRTA", "title": "Actual Treatment", "type": "Analysis Variable"}, "self": {"href": "/mdr/adam/adamig-1-2/datastructures/BDS/variables/TRTA", "title": "Actual Treatment", "type": "Analysis Variable"}}, "core": "Cond", "description": "TRTA is a record-level identifier that represents the actual treatment attributed to a record for analysis purposes. TRTA indicates how treatment varies by record within a subject and enables analysis of crossover and other multi-period designs. Though there is no requirement that TRTA will correspond to the TRTxxA as defined by the record's value of APERIOD, TRTA must match at least one value of the character actual treatment variables in ADSL (e.g., TRTxxA, TRTSEQA, TRxxAGy). \n As noted previously, at least one treatment variable is required. This requirement is satisfied by any subject-level or record-level treatment variables (e.g., TRTxxP, TRTP, TRTA). Even if not used for analysis, any ADSL treatment variable may be included in the BDS dataset.", "label": "Actual Treatment", "name": "TRTA", "ordinal": "149", "simpleDatatype": "Char"}, {"_links": {"parentDatastructure": {"href": "/mdr/adam/adamig-1-2/datastructures/BDS", "title": "Basic Data Structure", "type": "Data Structure"}, "parentProduct": {"href": "/mdr/adam/adamig-1-2", "title": "Analysis Data Model Implementation Guide Version 1.2", "type": "Implementation Guide"}, "parentVariableSet": {"href": "/mdr/adam/adamig-1-2/datastructures/BDS/varsets/RecordLevelTreatmentDose", "title": "BDS Record-Level Treatment and Dose Variables", "type": "Variable Set"}, "priorVersion": {"href": "/mdr/adam/adamig-1-1/datastructures/BDS/variables/TRTAN", "title": "Actual Treatment (N)", "type": "Analysis Variable"}, "self": {"href": "/mdr/adam/adamig-1-2/datastructures/BDS/variables/TRTAN", "title": "Actual Treatment (N)", "type": "Analysis Variable"}}, "core": "Perm", "description": "Numeric representation of TRTA. There must be a one-to-one relationship between TRTAN and TRTA within a study. \n TRTAN cannot be present unless TRTA is also present. When TRTA and TRTAN are present, then on a given record, either both must be populated or both must be null.", "label": "Actual Treatment (N)", "name": "TRTAN", "ordinal": "150", "simpleDatatype": "Num"}, {"_links": {"parentDatastructure": {"href": "/mdr/adam/adamig-1-2/datastructures/BDS", "title": "Basic Data Structure", "type": "Data Structure"}, "parentProduct": {"href": "/mdr/adam/adamig-1-2", "title": "Analysis Data Model Implementation Guide Version 1.2", "type": "Implementation Guide"}, "parentVariableSet": {"href": "/mdr/adam/adamig-1-2/datastructures/BDS/varsets/RecordLevelTreatmentDose", "title": "BDS Record-Level Treatment and Dose Variables", "type": "Variable Set"}, "priorVersion": {"href": "/mdr/adam/adamig-1-1/datastructures/BDS/variables/TRTPGy", "title": "Planned Pooled Treatment y", "type": "Analysis Variable"}, "self": {"href": "/mdr/adam/adamig-1-2/datastructures/BDS/variables/TRTPGy", "title": "Planned Pooled Treatment y", "type": "Analysis Variable"}}, "core": "Perm", "description": "TRTPGy is the planned pooled treatment y attributed to a record for analysis purposes. 'y' represents an integer [1-99, not zero-padded] corresponding to a particular pooling scheme. Useful when planned treatments (TRTP) are pooled together for analysis, for example when all doses of Drug A (TRTPG1=All doses of Drug A) are compared to all doses of Drug B (TRTPG1=All doses of Drug B). Each value of TRTP is pooled within at most one value of TRTPGy.", "label": "Planned Pooled Treatment y", "name": "TRTPGy", "ordinal": "151", "simpleDatatype": "Char"}, {"_links": {"parentDatastructure": {"href": "/mdr/adam/adamig-1-2/datastructures/BDS", "title": "Basic Data Structure", "type": "Data Structure"}, "parentProduct": {"href": "/mdr/adam/adamig-1-2", "title": "Analysis Data Model Implementation Guide Version 1.2", "type": "Implementation Guide"}, "parentVariableSet": {"href": "/mdr/adam/adamig-1-2/datastructures/BDS/varsets/RecordLevelTreatmentDose", "title": "BDS Record-Level Treatment and Dose Variables", "type": "Variable Set"}, "priorVersion": {"href": "/mdr/adam/adamig-1-1/datastructures/BDS/variables/TRTPGyN", "title": "Planned Pooled Treatment y (N)", "type": "Analysis Variable"}, "self": {"href": "/mdr/adam/adamig-1-2/datastructures/BDS/variables/TRTPGyN", "title": "Planned Pooled Treatment y (N)", "type": "Analysis Variable"}}, "core": "Perm", "description": "Numeric representation of TRTPGy. There must be a one-to-one relationship between TRTPGyN and TRTPGy within a study. \n TRTPGyN cannot be present unless TRTPGy is also present. When TRTPGy and TRTPGyN are present, then on a given record, either both must be populated or both must be null.", "label": "Planned Pooled Treatment y (N)", "name": "TRTPGyN", "ordinal": "152", "simpleDatatype": "Num"}, {"_links": {"parentDatastructure": {"href": "/mdr/adam/adamig-1-2/datastructures/BDS", "title": "Basic Data Structure", "type": "Data Structure"}, "parentProduct": {"href": "/mdr/adam/adamig-1-2", "title": "Analysis Data Model Implementation Guide Version 1.2", "type": "Implementation Guide"}, "parentVariableSet": {"href": "/mdr/adam/adamig-1-2/datastructures/BDS/varsets/RecordLevelTreatmentDose", "title": "BDS Record-Level Treatment and Dose Variables", "type": "Variable Set"}, "priorVersion": {"href": "/mdr/adam/adamig-1-1/datastructures/BDS/variables/TRTAGy", "title": "Actual Pooled Treatment y", "type": "Analysis Variable"}, "self": {"href": "/mdr/adam/adamig-1-2/datastructures/BDS/variables/TRTAGy", "title": "Actual Pooled Treatment y", "type": "Analysis Variable"}}, "core": "Cond", "description": "TRTAGy is the actual pooled treatment y attributed to a record for analysis purposes. 'y' represents an integer [1-99, not zero-padded] corresponding to a particular pooling scheme. Required when TRTPGy is present and TRTA is present.", "label": "Actual Pooled Treatment y", "name": "TRTAGy", "ordinal": "153", "simpleDatatype": "Char"}, {"_links": {"parentDatastructure": {"href": "/mdr/adam/adamig-1-2/datastructures/BDS", "title": "Basic Data Structure", "type": "Data Structure"}, "parentProduct": {"href": "/mdr/adam/adamig-1-2", "title": "Analysis Data Model Implementation Guide Version 1.2", "type": "Implementation Guide"}, "parentVariableSet": {"href": "/mdr/adam/adamig-1-2/datastructures/BDS/varsets/RecordLevelTreatmentDose", "title": "BDS Record-Level Treatment and Dose Variables", "type": "Variable Set"}, "priorVersion": {"href": "/mdr/adam/adamig-1-1/datastructures/BDS/variables/TRTAGyN", "title": "Actual Pooled Treatment y (N)", "type": "Analysis Variable"}, "self": {"href": "/mdr/adam/adamig-1-2/datastructures/BDS/variables/TRTAGyN", "title": "Actual Pooled Treatment y (N)", "type": "Analysis Variable"}}, "core": "Perm", "description": "Numeric representation of TRTAGy. There must be a one-to-one relationship between TRTAGyN and TRTAGy within a study. \n TRTAGyN cannot be present unless TRTAGy is also present. When TRTAGy and TRTAGyN are present, then on a given record, either both must be populated or both must be null.", "label": "Actual Pooled Treatment y (N)", "name": "TRTAGyN", "ordinal": "154", "simpleDatatype": "Num"}], "description": " ", "label": "BDS Record-Level Treatment and Dose Variables", "name": "RecordLevelTreatmentDose", "ordinal": "2"}, {"_links": {"parentDatastructure": {"href": "/mdr/adam/adamig-1-2/datastructures/BDS", "title": "Basic Data Structure", "type": "Data Structure"}, "parentProduct": {"href": "/mdr/adam/adamig-1-2", "title": "Analysis Data Model Implementation Guide Version 1.2", "type": "Implementation Guide"}, "priorVersion": {"href": "/mdr/adam/adamig-1-1/datastructures/BDS/varsets/RecordLevelDose", "title": "Record-Level Dose Variables for BDS Datasets", "type": "Variable Set"}, "self": {"href": "/mdr/adam/adamig-1-2/datastructures/BDS/varsets/RecordLevelDose", "title": "BDS Record-Level Dose Variables", "type": "Variable Set"}}, "analysisVariables": [{"_links": {"parentDatastructure": {"href": "/mdr/adam/adamig-1-2/datastructures/BDS", "title": "Basic Data Structure", "type": "Data Structure"}, "parentProduct": {"href": "/mdr/adam/adamig-1-2", "title": "Analysis Data Model Implementation Guide Version 1.2", "type": "Implementation Guide"}, "parentVariableSet": {"href": "/mdr/adam/adamig-1-2/datastructures/BDS/varsets/RecordLevelDose", "title": "BDS Record-Level Dose Variables", "type": "Variable Set"}, "priorVersion": {"href": "/mdr/adam/adamig-1-1/datastructures/BDS/variables/DOSEP", "title": "Planned Treatment Dose", "type": "Analysis Variable"}, "self": {"href": "/mdr/adam/adamig-1-2/datastructures/BDS/variables/DOSEP", "title": "Planned Treatment Dose", "type": "Analysis Variable"}}, "core": "Perm", "description": "DOSEP represents the planned treatment dosage associated with the record.", "label": "Planned Treatment Dose", "name": "DOSEP", "ordinal": "155", "simpleDatatype": "Num"}, {"_links": {"parentDatastructure": {"href": "/mdr/adam/adamig-1-2/datastructures/BDS", "title": "Basic Data Structure", "type": "Data Structure"}, "parentProduct": {"href": "/mdr/adam/adamig-1-2", "title": "Analysis Data Model Implementation Guide Version 1.2", "type": "Implementation Guide"}, "parentVariableSet": {"href": "/mdr/adam/adamig-1-2/datastructures/BDS/varsets/RecordLevelDose", "title": "BDS Record-Level Dose Variables", "type": "Variable Set"}, "priorVersion": {"href": "/mdr/adam/adamig-1-1/datastructures/BDS/variables/DOSCUMP", "title": "Cumulative Planned Treatment Dose", "type": "Analysis Variable"}, "self": {"href": "/mdr/adam/adamig-1-2/datastructures/BDS/variables/DOSCUMP", "title": "Cumulative Planned Treatment Dose", "type": "Analysis Variable"}}, "core": "Perm", "description": "Cumulative planned dosage of treatment for the subject at the point in time of the record (e.g., ADT).", "label": "Cumulative Planned Treatment Dose", "name": "DOSCUMP", "ordinal": "156", "simpleDatatype": "Num"}, {"_links": {"parentDatastructure": {"href": "/mdr/adam/adamig-1-2/datastructures/BDS", "title": "Basic Data Structure", "type": "Data Structure"}, "parentProduct": {"href": "/mdr/adam/adamig-1-2", "title": "Analysis Data Model Implementation Guide Version 1.2", "type": "Implementation Guide"}, "parentVariableSet": {"href": "/mdr/adam/adamig-1-2/datastructures/BDS/varsets/RecordLevelDose", "title": "BDS Record-Level Dose Variables", "type": "Variable Set"}, "priorVersion": {"href": "/mdr/adam/adamig-1-1/datastructures/BDS/variables/DOSEA", "title": "Actual Treatment Dose", "type": "Analysis Variable"}, "self": {"href": "/mdr/adam/adamig-1-2/datastructures/BDS/variables/DOSEA", "title": "Actual Treatment Dose", "type": "Analysis Variable"}}, "core": "Perm", "description": "DOSEA represents the actual treatment dosage associated with the record.", "label": "Actual Treatment Dose", "name": "DOSEA", "ordinal": "157", "simpleDatatype": "Num"}, {"_links": {"parentDatastructure": {"href": "/mdr/adam/adamig-1-2/datastructures/BDS", "title": "Basic Data Structure", "type": "Data Structure"}, "parentProduct": {"href": "/mdr/adam/adamig-1-2", "title": "Analysis Data Model Implementation Guide Version 1.2", "type": "Implementation Guide"}, "parentVariableSet": {"href": "/mdr/adam/adamig-1-2/datastructures/BDS/varsets/RecordLevelDose", "title": "BDS Record-Level Dose Variables", "type": "Variable Set"}, "priorVersion": {"href": "/mdr/adam/adamig-1-1/datastructures/BDS/variables/DOSCUMA", "title": "Cumulative Actual Treatment Dose", "type": "Analysis Variable"}, "self": {"href": "/mdr/adam/adamig-1-2/datastructures/BDS/variables/DOSCUMA", "title": "Cumulative Actual Treatment Dose", "type": "Analysis Variable"}}, "core": "Perm", "description": "Cumulative actual dosage of treatment for the subject at the point in time of the record (e.g., ADT).", "label": "Cumulative Actual Treatment Dose", "name": "DOSCUMA", "ordinal": "158", "simpleDatatype": "Num"}, {"_links": {"parentDatastructure": {"href": "/mdr/adam/adamig-1-2/datastructures/BDS", "title": "Basic Data Structure", "type": "Data Structure"}, "parentProduct": {"href": "/mdr/adam/adamig-1-2", "title": "Analysis Data Model Implementation Guide Version 1.2", "type": "Implementation Guide"}, "parentVariableSet": {"href": "/mdr/adam/adamig-1-2/datastructures/BDS/varsets/RecordLevelDose", "title": "BDS Record-Level Dose Variables", "type": "Variable Set"}, "priorVersion": {"href": "/mdr/adam/adamig-1-1/datastructures/BDS/variables/DOSEU", "title": "Treatment Dose Units", "type": "Analysis Variable"}, "self": {"href": "/mdr/adam/adamig-1-2/datastructures/BDS/variables/DOSEU", "title": "Treatment Dose Units", "type": "Analysis Variable"}}, "core": "Perm", "description": "The units for DOSEP, DOSCUMP, DOSEA, and DOSCUMA. It is permissible to use suffixes such as 'P' and 'A' if needed, with labels modified accordingly.", "label": "Treatment Dose Units", "name": "DOSEU", "ordinal": "159", "simpleDatatype": "Char"}], "description": " ", "label": "BDS Record-Level Dose Variables", "name": "RecordLevelDose", "ordinal": "3"}, {"_links": {"parentDatastructure": {"href": "/mdr/adam/adamig-1-2/datastructures/BDS", "title": "Basic Data Structure", "type": "Data Structure"}, "parentProduct": {"href": "/mdr/adam/adamig-1-2", "title": "Analysis Data Model Implementation Guide Version 1.2", "type": "Implementation Guide"}, "priorVersion": {"href": "/mdr/adam/adamig-1-1/datastructures/BDS/varsets/Timing", "title": "Timing Variables for BDS Datasets", "type": "Variable Set"}, "self": {"href": "/mdr/adam/adamig-1-2/datastructures/BDS/varsets/Timing", "title": "BDS Timing Variables", "type": "Variable Set"}}, "analysisVariables": [{"_links": {"parentDatastructure": {"href": "/mdr/adam/adamig-1-2/datastructures/BDS", "title": "Basic Data Structure", "type": "Data Structure"}, "parentProduct": {"href": "/mdr/adam/adamig-1-2", "title": "Analysis Data Model Implementation Guide Version 1.2", "type": "Implementation Guide"}, "parentVariableSet": {"href": "/mdr/adam/adamig-1-2/datastructures/BDS/varsets/Timing", "title": "BDS Timing Variables", "type": "Variable Set"}, "priorVersion": {"href": "/mdr/adam/adamig-1-1/datastructures/BDS/variables/ADT", "title": "Analysis Date", "type": "Analysis Variable"}, "self": {"href": "/mdr/adam/adamig-1-2/datastructures/BDS/variables/ADT", "title": "Analysis Date", "type": "Analysis Variable"}}, "core": "Perm", "description": "The date associated with AVAL and/or AVALC in numeric format.", "label": "Analysis Date", "name": "ADT", "ordinal": "160", "simpleDatatype": "Num"}, {"_links": {"parentDatastructure": {"href": "/mdr/adam/adamig-1-2/datastructures/BDS", "title": "Basic Data Structure", "type": "Data Structure"}, "parentProduct": {"href": "/mdr/adam/adamig-1-2", "title": "Analysis Data Model Implementation Guide Version 1.2", "type": "Implementation Guide"}, "parentVariableSet": {"href": "/mdr/adam/adamig-1-2/datastructures/BDS/varsets/Timing", "title": "BDS Timing Variables", "type": "Variable Set"}, "priorVersion": {"href": "/mdr/adam/adamig-1-1/datastructures/BDS/variables/ATM", "title": "Analysis Time", "type": "Analysis Variable"}, "self": {"href": "/mdr/adam/adamig-1-2/datastructures/BDS/variables/ATM", "title": "Analysis Time", "type": "Analysis Variable"}}, "core": "Perm", "description": "The time associated with AVAL and/or AVALC in numeric format.", "label": "Analysis Time", "name": "ATM", "ordinal": "161", "simpleDatatype": "Num"}, {"_links": {"parentDatastructure": {"href": "/mdr/adam/adamig-1-2/datastructures/BDS", "title": "Basic Data Structure", "type": "Data Structure"}, "parentProduct": {"href": "/mdr/adam/adamig-1-2", "title": "Analysis Data Model Implementation Guide Version 1.2", "type": "Implementation Guide"}, "parentVariableSet": {"href": "/mdr/adam/adamig-1-2/datastructures/BDS/varsets/Timing", "title": "BDS Timing Variables", "type": "Variable Set"}, "priorVersion": {"href": "/mdr/adam/adamig-1-1/datastructures/BDS/variables/ADTM", "title": "Analysis Datetime", "type": "Analysis Variable"}, "self": {"href": "/mdr/adam/adamig-1-2/datastructures/BDS/variables/ADTM", "title": "Analysis Datetime", "type": "Analysis Variable"}}, "core": "Perm", "description": "The datetime associated with AVAL and/or AVALC in numeric format.", "label": "Analysis Datetime", "name": "ADTM", "ordinal": "162", "simpleDatatype": "Num"}, {"_links": {"parentDatastructure": {"href": "/mdr/adam/adamig-1-2/datastructures/BDS", "title": "Basic Data Structure", "type": "Data Structure"}, "parentProduct": {"href": "/mdr/adam/adamig-1-2", "title": "Analysis Data Model Implementation Guide Version 1.2", "type": "Implementation Guide"}, "parentVariableSet": {"href": "/mdr/adam/adamig-1-2/datastructures/BDS/varsets/Timing", "title": "BDS Timing Variables", "type": "Variable Set"}, "priorVersion": {"href": "/mdr/adam/adamig-1-1/datastructures/BDS/variables/ADY", "title": "Analysis Relative Day", "type": "Analysis Variable"}, "self": {"href": "/mdr/adam/adamig-1-2/datastructures/BDS/variables/ADY", "title": "Analysis Relative Day", "type": "Analysis Variable"}}, "core": "Perm", "description": "The relative day of AVAL and/or AVALC. The number of days fr