{"_links": {"model": {"href": "/mdr/adam/adam-2-1", "title": "Analysis Data Model Version 2.1", "type": "Foundational Model"}, "self": {"href": "/mdr/adam/adam-tte-1-0", "title": "ADaM Basic Data Structure for Time-to-Event Analyses Version 1.0", "type": "Implementation Guide"}}, "dataStructures": [{"_links": {"parentProduct": {"href": "/mdr/adam/adam-tte-1-0", "title": "ADaM Basic Data Structure for Time-to-Event Analyses Version 1.0", "type": "Implementation Guide"}, "self": {"href": "/mdr/adam/adam-tte-1-0/datastructures/ADTTE", "title": "Basic Data Structure for Time to Event Analyses", "type": "Data Structure"}}, "analysisVariableSets": [{"_links": {"parentDatastructure": {"href": "/mdr/adam/adam-tte-1-0/datastructures/ADTTE", "title": "Basic Data Structure for Time to Event Analyses", "type": "Data Structure"}, "parentProduct": {"href": "/mdr/adam/adam-tte-1-0", "title": "ADaM Basic Data Structure for Time-to-Event Analyses Version 1.0", "type": "Implementation Guide"}, "self": {"href": "/mdr/adam/adam-tte-1-0/datastructures/ADTTE/varsets/SubjectIdentifierVariable", "title": "Subject Identifier Variable", "type": "Variable Set"}}, "analysisVariables": [{"_links": {"parentDatastructure": {"href": "/mdr/adam/adam-tte-1-0/datastructures/ADTTE", "title": "Basic Data Structure for Time to Event Analyses", "type": "Data Structure"}, "parentProduct": {"href": "/mdr/adam/adam-tte-1-0", "title": "ADaM Basic Data Structure for Time-to-Event Analyses Version 1.0", "type": "Implementation Guide"}, "parentVariableSet": {"href": "/mdr/adam/adam-tte-1-0/datastructures/ADTTE/varsets/SubjectIdentifierVariable", "title": "Subject Identifier Variable", "type": "Variable Set"}, "self": {"href": "/mdr/adam/adam-tte-1-0/datastructures/ADTTE/variables/STUDYID", "title": "Study Identifier", "type": "Analysis Variable"}}, "core": "Req", "description": "Must be identical to the ADSL variable.", "label": "Study Identifier", "name": "STUDYID", "ordinal": "1", "simpleDatatype": "Char"}, {"_links": {"parentDatastructure": {"href": "/mdr/adam/adam-tte-1-0/datastructures/ADTTE", "title": "Basic Data Structure for Time to Event Analyses", "type": "Data Structure"}, "parentProduct": {"href": "/mdr/adam/adam-tte-1-0", "title": "ADaM Basic Data Structure for Time-to-Event Analyses Version 1.0", "type": "Implementation Guide"}, "parentVariableSet": {"href": "/mdr/adam/adam-tte-1-0/datastructures/ADTTE/varsets/SubjectIdentifierVariable", "title": "Subject Identifier Variable", "type": "Variable Set"}, "self": {"href": "/mdr/adam/adam-tte-1-0/datastructures/ADTTE/variables/USUBJID", "title": "Unique Subject Identifier", "type": "Analysis Variable"}}, "core": "Req", "description": "Must be identical to the ADSL variable.", "label": "Unique Subject Identifier", "name": "USUBJID", "ordinal": "2", "simpleDatatype": "Char"}, {"_links": {"parentDatastructure": {"href": "/mdr/adam/adam-tte-1-0/datastructures/ADTTE", "title": "Basic Data Structure for Time to Event Analyses", "type": "Data Structure"}, "parentProduct": {"href": "/mdr/adam/adam-tte-1-0", "title": "ADaM Basic Data Structure for Time-to-Event Analyses Version 1.0", "type": "Implementation Guide"}, "parentVariableSet": {"href": "/mdr/adam/adam-tte-1-0/datastructures/ADTTE/varsets/SubjectIdentifierVariable", "title": "Subject Identifier Variable", "type": "Variable Set"}, "self": {"href": "/mdr/adam/adam-tte-1-0/datastructures/ADTTE/variables/ASEQ", "title": "Analysis Sequence Number", "type": "Analysis Variable"}}, "core": "Perm", "description": "Sequence number given to ensure uniqueness of subject record within the analysis dataset. As long as values are unique within a dataset, any valid number can be used for ASEQ. The use of this variable will be addressed in detail in the next version of ADaM IG.", "label": "Analysis Sequence Number", "name": "ASEQ", "ordinal": "3", "simpleDatatype": "Num"}], "label": "Subject Identifier Variable", "name": "Subject Identifier Variable", "ordinal": "1"}, {"_links": {"parentDatastructure": {"href": "/mdr/adam/adam-tte-1-0/datastructures/ADTTE", "title": "Basic Data Structure for Time to Event Analyses", "type": "Data Structure"}, "parentProduct": {"href": "/mdr/adam/adam-tte-1-0", "title": "ADaM Basic Data Structure for Time-to-Event Analyses Version 1.0", "type": "Implementation Guide"}, "self": {"href": "/mdr/adam/adam-tte-1-0/datastructures/ADTTE/varsets/TreatmentVariables", "title": "Treatment Variables", "type": "Variable Set"}}, "analysisVariables": [{"_links": {"parentDatastructure": {"href": "/mdr/adam/adam-tte-1-0/datastructures/ADTTE", "title": "Basic Data Structure for Time to Event Analyses", "type": "Data Structure"}, "parentProduct": {"href": "/mdr/adam/adam-tte-1-0", "title": "ADaM Basic Data Structure for Time-to-Event Analyses Version 1.0", "type": "Implementation Guide"}, "parentVariableSet": {"href": "/mdr/adam/adam-tte-1-0/datastructures/ADTTE/varsets/TreatmentVariables", "title": "Treatment Variables", "type": "Variable Set"}, "self": {"href": "/mdr/adam/adam-tte-1-0/datastructures/ADTTE/variables/TRTP", "title": "Planned Treatment", "type": "Analysis Variable"}}, "core": "Req", "description": "TRTP is a record-level identifier that represents the planned treatment attributed to a record for analysis purposes.", "label": "Planned Treatment", "name": "TRTP", "ordinal": "4", "simpleDatatype": "Char"}, {"_links": {"parentDatastructure": {"href": "/mdr/adam/adam-tte-1-0/datastructures/ADTTE", "title": "Basic Data Structure for Time to Event Analyses", "type": "Data Structure"}, "parentProduct": {"href": "/mdr/adam/adam-tte-1-0", "title": "ADaM Basic Data Structure for Time-to-Event Analyses Version 1.0", "type": "Implementation Guide"}, "parentVariableSet": {"href": "/mdr/adam/adam-tte-1-0/datastructures/ADTTE/varsets/TreatmentVariables", "title": "Treatment Variables", "type": "Variable Set"}, "self": {"href": "/mdr/adam/adam-tte-1-0/datastructures/ADTTE/variables/TRTPN", "title": "Planned Treatment (N)", "type": "Analysis Variable"}}, "core": "Perm", "description": "The numeric code for TRTP. One-to-one map to TRTP.", "label": "Planned Treatment (N)", "name": "TRTPN", "ordinal": "5", "simpleDatatype": "Num"}, {"_links": {"parentDatastructure": {"href": "/mdr/adam/adam-tte-1-0/datastructures/ADTTE", "title": "Basic Data Structure for Time to Event Analyses", "type": "Data Structure"}, "parentProduct": {"href": "/mdr/adam/adam-tte-1-0", "title": "ADaM Basic Data Structure for Time-to-Event Analyses Version 1.0", "type": "Implementation Guide"}, "parentVariableSet": {"href": "/mdr/adam/adam-tte-1-0/datastructures/ADTTE/varsets/TreatmentVariables", "title": "Treatment Variables", "type": "Variable Set"}, "self": {"href": "/mdr/adam/adam-tte-1-0/datastructures/ADTTE/variables/TRTA", "title": "Actual Treatment", "type": "Analysis Variable"}}, "core": "Cond", "description": "TRTA is a record-level identifier that represents the actual treatment attributed to a record for analysis purposes.", "label": "Actual Treatment", "name": "TRTA", "ordinal": "6", "simpleDatatype": "Char"}, {"_links": {"parentDatastructure": {"href": "/mdr/adam/adam-tte-1-0/datastructures/ADTTE", "title": "Basic Data Structure for Time to Event Analyses", "type": "Data Structure"}, "parentProduct": {"href": "/mdr/adam/adam-tte-1-0", "title": "ADaM Basic Data Structure for Time-to-Event Analyses Version 1.0", "type": "Implementation Guide"}, "parentVariableSet": {"href": "/mdr/adam/adam-tte-1-0/datastructures/ADTTE/varsets/TreatmentVariables", "title": "Treatment Variables", "type": "Variable Set"}, "self": {"href": "/mdr/adam/adam-tte-1-0/datastructures/ADTTE/variables/TRTAN", "title": "Actual Treatment (N)", "type": "Analysis Variable"}}, "core": "Perm", "description": "The numeric code for TRTA. One-to-one map to TRTA.", "label": "Actual Treatment (N)", "name": "TRTAN", "ordinal": "7", "simpleDatatype": "Num"}, {"_links": {"parentDatastructure": {"href": "/mdr/adam/adam-tte-1-0/datastructures/ADTTE", "title": "Basic Data Structure for Time to Event Analyses", "type": "Data Structure"}, "parentProduct": {"href": "/mdr/adam/adam-tte-1-0", "title": "ADaM Basic Data Structure for Time-to-Event Analyses Version 1.0", "type": "Implementation Guide"}, "parentVariableSet": {"href": "/mdr/adam/adam-tte-1-0/datastructures/ADTTE/varsets/TreatmentVariables", "title": "Treatment Variables", "type": "Variable Set"}, "self": {"href": "/mdr/adam/adam-tte-1-0/datastructures/ADTTE/variables/TRTxxP", "title": "Planned Treatment for Period xx", "type": "Analysis Variable"}}, "core": "Cond", "description": "Subject-level identifier that represents the planned treatment for period xx. Must be identical to the ADSL variable. The letter 'xx' in the variable name refer to a specific period where 'xx' is replaced with a zero-padded two-digit integer (i.e., 01 - 99).", "label": "Planned Treatment for Period xx", "name": "TRTxxP", "ordinal": "8", "simpleDatatype": "Char"}, {"_links": {"parentDatastructure": {"href": "/mdr/adam/adam-tte-1-0/datastructures/ADTTE", "title": "Basic Data Structure for Time to Event Analyses", "type": "Data Structure"}, "parentProduct": {"href": "/mdr/adam/adam-tte-1-0", "title": "ADaM Basic Data Structure for Time-to-Event Analyses Version 1.0", "type": "Implementation Guide"}, "parentVariableSet": {"href": "/mdr/adam/adam-tte-1-0/datastructures/ADTTE/varsets/TreatmentVariables", "title": "Treatment Variables", "type": "Variable Set"}, "self": {"href": "/mdr/adam/adam-tte-1-0/datastructures/ADTTE/variables/TRTxxPN", "title": "Planned Treatment for Period xx (N)", "type": "Analysis Variable"}}, "core": "Perm", "description": "The numeric code variable for TRTxxP. One-to-one map to TRTxxP. If included in ADSL, must be identical to the ADSL variable.", "label": "Planned Treatment for Period xx (N)", "name": "TRTxxPN", "ordinal": "9", "simpleDatatype": "Num"}, {"_links": {"parentDatastructure": {"href": "/mdr/adam/adam-tte-1-0/datastructures/ADTTE", "title": "Basic Data Structure for Time to Event Analyses", "type": "Data Structure"}, "parentProduct": {"href": "/mdr/adam/adam-tte-1-0", "title": "ADaM Basic Data Structure for Time-to-Event Analyses Version 1.0", "type": "Implementation Guide"}, "parentVariableSet": {"href": "/mdr/adam/adam-tte-1-0/datastructures/ADTTE/varsets/TreatmentVariables", "title": "Treatment Variables", "type": "Variable Set"}, "self": {"href": "/mdr/adam/adam-tte-1-0/datastructures/ADTTE/variables/TRTxxA", "title": "Actual Treatment for Period xx", "type": "Analysis Variable"}}, "core": "Cond", "description": "Subject-level identifier that represents the actual treatment for period xx. If included in ADSL, must be identical to the ADSL variable.", "label": "Actual Treatment for Period xx", "name": "TRTxxA", "ordinal": "10", "simpleDatatype": "Char"}, {"_links": {"parentDatastructure": {"href": "/mdr/adam/adam-tte-1-0/datastructures/ADTTE", "title": "Basic Data Structure for Time to Event Analyses", "type": "Data Structure"}, "parentProduct": {"href": "/mdr/adam/adam-tte-1-0", "title": "ADaM Basic Data Structure for Time-to-Event Analyses Version 1.0", "type": "Implementation Guide"}, "parentVariableSet": {"href": "/mdr/adam/adam-tte-1-0/datastructures/ADTTE/varsets/TreatmentVariables", "title": "Treatment Variables", "type": "Variable Set"}, "self": {"href": "/mdr/adam/adam-tte-1-0/datastructures/ADTTE/variables/TRTxxAN", "title": "Actual Treatment for Period xx (N)", "type": "Analysis Variable"}}, "core": "Perm", "description": "The numeric code variable for TRTxxA. One-to-one map to TRTxxA. If included in ADSL, must be identical to the ADSL variable.", "label": "Actual Treatment for Period xx (N)", "name": "TRTxxAN", "ordinal": "11", "simpleDatatype": "Num"}], "label": "Treatment Variables", "name": "Treatment Variables", "ordinal": "2"}, {"_links": {"parentDatastructure": {"href": "/mdr/adam/adam-tte-1-0/datastructures/ADTTE", "title": "Basic Data Structure for Time to Event Analyses", "type": "Data Structure"}, "parentProduct": {"href": "/mdr/adam/adam-tte-1-0", "title": "ADaM Basic Data Structure for Time-to-Event Analyses Version 1.0", "type": "Implementation Guide"}, "self": {"href": "/mdr/adam/adam-tte-1-0/datastructures/ADTTE/varsets/AnalysisParameterVariables", "title": "Analysis Parameter Variables", "type": "Variable Set"}}, "analysisVariables": [{"_links": {"parentDatastructure": {"href": "/mdr/adam/adam-tte-1-0/datastructures/ADTTE", "title": "Basic Data Structure for Time to Event Analyses", "type": "Data Structure"}, "parentProduct": {"href": "/mdr/adam/adam-tte-1-0", "title": "ADaM Basic Data Structure for Time-to-Event Analyses Version 1.0", "type": "Implementation Guide"}, "parentVariableSet": {"href": "/mdr/adam/adam-tte-1-0/datastructures/ADTTE/varsets/AnalysisParameterVariables", "title": "Analysis Parameter Variables", "type": "Variable Set"}, "self": {"href": "/mdr/adam/adam-tte-1-0/datastructures/ADTTE/variables/PARAM", "title": "Parameter", "type": "Analysis Variable"}}, "core": "Req", "description": "The description of the analysis parameter. Examples include: 'Time to Death (days)', 'Time to First Hospitalization Through Day 168 (days)', 'Time to Progression Free Survival (days)', and 'Time to Hepatitis B Seroconversion (days)'. PARAM should be sufficient to describe clear contents of AVAL, including the unit of the measurement, if applicable. PARAM may be longer than 40 characters in length (200-character limit).", "label": "Parameter", "name": "PARAM", "ordinal": "12", "simpleDatatype": "Char"}, {"_links": {"parentDatastructure": {"href": "/mdr/adam/adam-tte-1-0/datastructures/ADTTE", "title": "Basic Data Structure for Time to Event Analyses", "type": "Data Structure"}, "parentProduct": {"href": "/mdr/adam/adam-tte-1-0", "title": "ADaM Basic Data Structure for Time-to-Event Analyses Version 1.0", "type": "Implementation Guide"}, "parentVariableSet": {"href": "/mdr/adam/adam-tte-1-0/datastructures/ADTTE/varsets/AnalysisParameterVariables", "title": "Analysis Parameter Variables", "type": "Variable Set"}, "self": {"href": "/mdr/adam/adam-tte-1-0/datastructures/ADTTE/variables/PARAMCD", "title": "Parameter Code", "type": "Analysis Variable"}}, "core": "Req", "description": "The short name of the analysis parameter in PARAM. Values of PARAMCD should follow SAS 5 variable naming conventions (8 characters or less; starts with letter; contains only letters and digits). There must be a one-to-one mapping with PARAM. Examples include DEATH, PFS, and T2SERO.", "label": "Parameter Code", "name": "PARAMCD", "ordinal": "13", "simpleDatatype": "Char"}, {"_links": {"parentDatastructure": {"href": "/mdr/adam/adam-tte-1-0/datastructures/ADTTE", "title": "Basic Data Structure for Time to Event Analyses", "type": "Data Structure"}, "parentProduct": {"href": "/mdr/adam/adam-tte-1-0", "title": "ADaM Basic Data Structure for Time-to-Event Analyses Version 1.0", "type": "Implementation Guide"}, "parentVariableSet": {"href": "/mdr/adam/adam-tte-1-0/datastructures/ADTTE/varsets/AnalysisParameterVariables", "title": "Analysis Parameter Variables", "type": "Variable Set"}, "self": {"href": "/mdr/adam/adam-tte-1-0/datastructures/ADTTE/variables/AVAL", "title": "Analysis Value", "type": "Analysis Variable"}}, "core": "Req", "description": "AVAL is the elapsed time to the event of interest from the origin. For example, if AVAL is measured in days, AVAL would be ADT - STARTDT or ADT - STARTDT + 1", "label": "Analysis Value", "name": "AVAL", "ordinal": "14", "simpleDatatype": "Num"}], "label": "Analysis Parameter Variables", "name": "Analysis Parameter Variables", "ordinal": "3"}, {"_links": {"parentDatastructure": {"href": "/mdr/adam/adam-tte-1-0/datastructures/ADTTE", "title": "Basic Data Structure for Time to Event Analyses", "type": "Data Structure"}, "parentProduct": {"href": "/mdr/adam/adam-tte-1-0", "title": "ADaM Basic Data Structure for Time-to-Event Analyses Version 1.0", "type": "Implementation Guide"}, "self": {"href": "/mdr/adam/adam-tte-1-0/datastructures/ADTTE/varsets/TimetoEventVariables", "title": "Time-to-Event Variables ", "type": "Variable Set"}}, "analysisVariables": [{"_links": {"parentDatastructure": {"href": "/mdr/adam/adam-tte-1-0/datastructures/ADTTE", "title": "Basic Data Structure for Time to Event Analyses", "type": "Data Structure"}, "parentProduct": {"href": "/mdr/adam/adam-tte-1-0", "title": "ADaM Basic Data Structure for Time-to-Event Analyses Version 1.0", "type": "Implementation Guide"}, "parentVariableSet": {"href": "/mdr/adam/adam-tte-1-0/datastructures/ADTTE/varsets/TimetoEventVariables", "title": "Time-to-Event Variables ", "type": "Variable Set"}, "self": {"href": "/mdr/adam/adam-tte-1-0/datastructures/ADTTE/variables/STARTDT", "title": "Time to Event Origin Date for Subject", "type": "Analysis Variable"}}, "core": "Perm", "description": "The original date of risk for the time-to-event analysis. This is generally the time at which a subject is first at risk for the event of interest evaluation (as defined in the Protocol or Statistical Analysis Plan). For example, this may be the randomization date or the date of first study therapy exposure.", "label": "Time to Event Origin Date for Subject", "name": "STARTDT", "ordinal": "15", "simpleDatatype": "Num"}, {"_links": {"parentDatastructure": {"href": "/mdr/adam/adam-tte-1-0/datastructures/ADTTE", "title": "Basic Data Structure for Time to Event Analyses", "type": "Data Structure"}, "parentProduct": {"href": "/mdr/adam/adam-tte-1-0", "title": "ADaM Basic Data Structure for Time-to-Event Analyses Version 1.0", "type": "Implementation Guide"}, "parentVariableSet": {"href": "/mdr/adam/adam-tte-1-0/datastructures/ADTTE/varsets/TimetoEventVariables", "title": "Time-to-Event Variables ", "type": "Variable Set"}, "self": {"href": "/mdr/adam/adam-tte-1-0/datastructures/ADTTE/variables/STARTDTM", "title": "Time to Event Origin Date/Time", "type": "Analysis Variable"}}, "core": "Perm", "description": "The date/time associated with STARTDT in numeric format.", "label": "Time to Event Origin Date/Time", "name": "STARTDTM", "ordinal": "16", "simpleDatatype": "Num"}, {"_links": {"codelist": [{"href": "/mdr/root/ct/adamct/codelists/C81223", "title": "Version-agnostic anchor resource for codelist C81223", "type": "Root Value Domain"}], "parentDatastructure": {"href": "/mdr/adam/adam-tte-1-0/datastructures/ADTTE", "title": "Basic Data Structure for Time to Event Analyses", "type": "Data Structure"}, "parentProduct": {"href": "/mdr/adam/adam-tte-1-0", "title": "ADaM Basic Data Structure for Time-to-Event Analyses Version 1.0", "type": "Implementation Guide"}, "parentVariableSet": {"href": "/mdr/adam/adam-tte-1-0/datastructures/ADTTE/varsets/TimetoEventVariables", "title": "Time-to-Event Variables ", "type": "Variable Set"}, "self": {"href": "/mdr/adam/adam-tte-1-0/datastructures/ADTTE/variables/STARTDTF", "title": "Origin Date Imputation Flag", "type": "Analysis Variable"}}, "codelistSubmissionValues": ["DATEFL"], "core": "Cond", "description": "The level of imputation of the origin date. See General Timing Variable Convention #6 in the ADaM IG [2].", "label": "Origin Date Imputation Flag", "name": "STARTDTF", "ordinal": "17", "simpleDatatype": "Char"}, {"_links": {"codelist": [{"href": "/mdr/root/ct/adamct/codelists/C81226", "title": "Version-agnostic anchor resource for codelist C81226", "type": "Root Value Domain"}], "parentDatastructure": {"href": "/mdr/adam/adam-tte-1-0/datastructures/ADTTE", "title": "Basic Data Structure for Time to Event Analyses", "type": "Data Structure"}, "parentProduct": {"href": "/mdr/adam/adam-tte-1-0", "title": "ADaM Basic Data Structure for Time-to-Event Analyses Version 1.0", "type": "Implementation Guide"}, "parentVariableSet": {"href": "/mdr/adam/adam-tte-1-0/datastructures/ADTTE/varsets/TimetoEventVariables", "title": "Time-to-Event Variables ", "type": "Variable Set"}, "self": {"href": "/mdr/adam/adam-tte-1-0/datastructures/ADTTE/variables/STARTTMF", "title": "Origin Time Imputation Flag", "type": "Analysis Variable"}}, "codelistSubmissionValues": ["TIMEFL"], "core": "Cond", "description": "The level of imputation of the origin time. See General Timing Variable Convention #7 in the ADaM IG [2].", "label": "Origin Time Imputation Flag", "name": "STARTTMF", "ordinal": "18", "simpleDatatype": "Char"}, {"_links": {"parentDatastructure": {"href": "/mdr/adam/adam-tte-1-0/datastructures/ADTTE", "title": "Basic Data Structure for Time to Event Analyses", "type": "Data Structure"}, "parentProduct": {"href": "/mdr/adam/adam-tte-1-0", "title": "ADaM Basic Data Structure for Time-to-Event Analyses Version 1.0", "type": "Implementation Guide"}, "parentVariableSet": {"href": "/mdr/adam/adam-tte-1-0/datastructures/ADTTE/varsets/TimetoEventVariables", "title": "Time-to-Event Variables ", "type": "Variable Set"}, "self": {"href": "/mdr/adam/adam-tte-1-0/datastructures/ADTTE/variables/CNSR", "title": "Censor", "type": "Analysis Variable"}}, "core": "Cond", "description": "CNSR is a required variable for a time-to-event analysis dataset, though it is a conditionally required variable with respect to the ADaM BDS. For example, CNSR = 0 for event and CNSR > 0 for censored records.", "label": "Censor", "name": "CNSR", "ordinal": "24", "simpleDatatype": "Num"}, {"_links": {"parentDatastructure": {"href": "/mdr/adam/adam-tte-1-0/datastructures/ADTTE", "title": "Basic Data Structure for Time to Event Analyses", "type": "Data Structure"}, "parentProduct": {"href": "/mdr/adam/adam-tte-1-0", "title": "ADaM Basic Data Structure for Time-to-Event Analyses Version 1.0", "type": "Implementation Guide"}, "parentVariableSet": {"href": "/mdr/adam/adam-tte-1-0/datastructures/ADTTE/varsets/TimetoEventVariables", "title": "Time-to-Event Variables ", "type": "Variable Set"}, "self": {"href": "/mdr/adam/adam-tte-1-0/datastructures/ADTTE/variables/EVNTDESC", "title": "Event or Censoring Description", "type": "Analysis Variable"}}, "core": "Perm", "description": "Describe the event of interest or an event that warrants censoring. Values for EVNTDESC will be defined in the metadata as sponsor-defined controlled terminology (See Section 7.1).", "label": "Event or Censoring Description", "name": "EVNTDESC", "ordinal": "28", "simpleDatatype": "Char"}, {"_links": {"parentDatastructure": {"href": "/mdr/adam/adam-tte-1-0/datastructures/ADTTE", "title": "Basic Data Structure for Time to Event Analyses", "type": "Data Structure"}, "parentProduct": {"href": "/mdr/adam/adam-tte-1-0", "title": "ADaM Basic Data Structure for Time-to-Event Analyses Version 1.0", "type": "Implementation Guide"}, "parentVariableSet": {"href": "/mdr/adam/adam-tte-1-0/datastructures/ADTTE/varsets/TimetoEventVariables", "title": "Time-to-Event Variables ", "type": "Variable Set"}, "self": {"href": "/mdr/adam/adam-tte-1-0/datastructures/ADTTE/variables/CNSDTDSC", "title": "Censor Date Description", "type": "Analysis Variable"}}, "core": "Perm", "description": "Describe the circumstance represented by the censoring date if different from the event date that warrants censoring.", "label": "Censor Date Description", "name": "CNSDTDSC", "ordinal": "29", "simpleDatatype": "Char"}], "label": "Time-to-Event Variables ", "name": "Time-to-Event Variables ", "ordinal": "4"}, {"_links": {"parentDatastructure": {"href": "/mdr/adam/adam-tte-1-0/datastructures/ADTTE", "title": "Basic Data Structure for Time to Event Analyses", "type": "Data Structure"}, "parentProduct": {"href": "/mdr/adam/adam-tte-1-0", "title": "ADaM Basic Data Structure for Time-to-Event Analyses Version 1.0", "type": "Implementation Guide"}, "self": {"href": "/mdr/adam/adam-tte-1-0/datastructures/ADTTE/varsets/TimingVariables", "title": "Timing Variables", "type": "Variable Set"}}, "analysisVariables": [{"_links": {"parentDatastructure": {"href": "/mdr/adam/adam-tte-1-0/datastructures/ADTTE", "title": "Basic Data Structure for Time to Event Analyses", "type": "Data Structure"}, "parentProduct": {"href": "/mdr/adam/adam-tte-1-0", "title": "ADaM Basic Data Structure for Time-to-Event Analyses Version 1.0", "type": "Implementation Guide"}, "parentVariableSet": {"href": "/mdr/adam/adam-tte-1-0/datastructures/ADTTE/varsets/TimingVariables", "title": "Timing Variables", "type": "Variable Set"}, "self": {"href": "/mdr/adam/adam-tte-1-0/datastructures/ADTTE/variables/ADT", "title": "Analysis Date", "type": "Analysis Variable"}}, "core": "Perm", "description": "Analysis date of event or censoring associated with AVAL in numeric format.", "label": "Analysis Date", "name": "ADT", "ordinal": "19", "simpleDatatype": "Num"}, {"_links": {"parentDatastructure": {"href": "/mdr/adam/adam-tte-1-0/datastructures/ADTTE", "title": "Basic Data Structure for Time to Event Analyses", "type": "Data Structure"}, "parentProduct": {"href": "/mdr/adam/adam-tte-1-0", "title": "ADaM Basic Data Structure for Time-to-Event Analyses Version 1.0", "type": "Implementation Guide"}, "parentVariableSet": {"href": "/mdr/adam/adam-tte-1-0/datastructures/ADTTE/varsets/TimingVariables", "title": "Timing Variables", "type": "Variable Set"}, "self": {"href": "/mdr/adam/adam-tte-1-0/datastructures/ADTTE/variables/ADTM", "title": "Analysis Date/Time", "type": "Analysis Variable"}}, "core": "Perm", "description": "Analysis date/time of event or censoring associated with AVAL in numeric format.", "label": "Analysis Date/Time", "name": "ADTM", "ordinal": "20", "simpleDatatype": "Num"}, {"_links": {"codelist": [{"href": "/mdr/root/ct/adamct/codelists/C81223", "title": "Version-agnostic anchor resource for codelist C81223", "type": "Root Value Domain"}], "parentDatastructure": {"href": "/mdr/adam/adam-tte-1-0/datastructures/ADTTE", "title": "Basic Data Structure for Time to Event Analyses", "type": "Data Structure"}, "parentProduct": {"href": "/mdr/adam/adam-tte-1-0", "title": "ADaM Basic Data Structure for Time-to-Event Analyses Version 1.0", "type": "Implementation Guide"}, "parentVariableSet": {"href": "/mdr/adam/adam-tte-1-0/datastructures/ADTTE/varsets/TimingVariables", "title": "Timing Variables", "type": "Variable Set"}, "self": {"href": "/mdr/adam/adam-tte-1-0/datastructures/ADTTE/variables/ADTF", "title": "Analysis Date Imputation Flag", "type": "Analysis Variable"}}, "codelistSubmissionValues": ["DATEFL"], "core": "Cond", "description": "The level of imputation of ADT based on the source SDTM DTC variable. See General Timing Variable Convention #6 in the ADaM IG [2].", "label": "Analysis Date Imputation Flag", "name": "ADTF", "ordinal": "21", "simpleDatatype": "Char"}, {"_links": {"codelist": [{"href": "/mdr/root/ct/adamct/codelists/C81226", "title": "Version-agnostic anchor resource for codelist C81226", "type": "Root Value Domain"}], "parentDatastructure": {"href": "/mdr/adam/adam-tte-1-0/datastructures/ADTTE", "title": "Basic Data Structure for Time to Event Analyses", "type": "Data Structure"}, "parentProduct": {"href": "/mdr/adam/adam-tte-1-0", "title": "ADaM Basic Data Structure for Time-to-Event Analyses Version 1.0", "type": "Implementation Guide"}, "parentVariableSet": {"href": "/mdr/adam/adam-tte-1-0/datastructures/ADTTE/varsets/TimingVariables", "title": "Timing Variables", "type": "Variable Set"}, "self": {"href": "/mdr/adam/adam-tte-1-0/datastructures/ADTTE/variables/ATMF", "title": "Analysis Time Imputation Flag", "type": "Analysis Variable"}}, "codelistSubmissionValues": ["TIMEFL"], "core": "Cond", "description": "The level of imputation of ATM based on the source SDTM DTC variable. See General Timing Variable Convention #7 in the ADaM IG [2].", "label": "Analysis Time Imputation Flag", "name": "ATMF", "ordinal": "22", "simpleDatatype": "Char"}, {"_links": {"parentDatastructure": {"href": "/mdr/adam/adam-tte-1-0/datastructures/ADTTE", "title": "Basic Data Structure for Time to Event Analyses", "type": "Data Structure"}, "parentProduct": {"href": "/mdr/adam/adam-tte-1-0", "title": "ADaM Basic Data Structure for Time-to-Event Analyses Version 1.0", "type": "Implementation Guide"}, "parentVariableSet": {"href": "/mdr/adam/adam-tte-1-0/datastructures/ADTTE/varsets/TimingVariables", "title": "Timing Variables", "type": "Variable Set"}, "self": {"href": "/mdr/adam/adam-tte-1-0/datastructures/ADTTE/variables/AVISIT", "title": "Analysis Visit", "type": "Analysis Variable"}}, "core": "Cond", "description": "Analysis visit where event or censoring occurred. AVISIT may contain the visit names as observed (i.e., from SDTM VISIT), derived visit names, or conceptual description (e.g., endpoint).", "label": "Analysis Visit", "name": "AVISIT", "ordinal": "23", "simpleDatatype": "Char"}], "label": "Timing Variables", "name": "Timing Variables", "ordinal": "5"}, {"_links": {"parentDatastructure": {"href": "/mdr/adam/adam-tte-1-0/datastructures/ADTTE", "title": "Basic Data Structure for Time to Event Analyses", "type": "Data Structure"}, "parentProduct": {"href": "/mdr/adam/adam-tte-1-0", "title": "ADaM Basic Data Structure for Time-to-Event Analyses Version 1.0", "type": "Implementation Guide"}, "self": {"href": "/mdr/adam/adam-tte-1-0/datastructures/ADTTE/varsets/DataPointTraceabilityVariables", "title": "Data Point Traceability Variables", "type": "Variable Set"}}, "analysisVariables": [{"_links": {"parentDatastructure": {"href": "/mdr/adam/adam-tte-1-0/datastructures/ADTTE", "title": "Basic Data Structure for Time to Event Analyses", "type": "Data Structure"}, "parentProduct": {"href": "/mdr/adam/adam-tte-1-0", "title": "ADaM Basic Data Structure for Time-to-Event Analyses Version 1.0", "type": "Implementation Guide"}, "parentVariableSet": {"href": "/mdr/adam/adam-tte-1-0/datastructures/ADTTE/varsets/DataPointTraceabilityVariables", "title": "Data Point Traceability Variables", "type": "Variable Set"}, "self": {"href": "/mdr/adam/adam-tte-1-0/datastructures/ADTTE/variables/SRCDOM", "title": "Source Data", "type": "Analysis Variable"}}, "core": "Perm", "description": "The name of the SDTM domain (or dataset) or analysis dataset that relates to the analysis variable (e.g., AVAL). Allowing SRCDOM to be not only SDTM, but also ADaM dataset will be addressed in the next version of ADaM IG.", "label": "Source Data", "name": "SRCDOM", "ordinal": "25", "simpleDatatype": "Char"}, {"_links": {"parentDatastructure": {"href": "/mdr/adam/adam-tte-1-0/datastructures/ADTTE", "title": "Basic Data Structure for Time to Event Analyses", "type": "Data Structure"}, "parentProduct": {"href": "/mdr/adam/adam-tte-1-0", "title": "ADaM Basic Data Structure for Time-to-Event Analyses Version 1.0", "type": "Implementation Guide"}, "parentVariableSet": {"href": "/mdr/adam/adam-tte-1-0/datastructures/ADTTE/varsets/DataPointTraceabilityVariables", "title": "Data Point Traceability Variables", "type": "Variable Set"}, "self": {"href": "/mdr/adam/adam-tte-1-0/datastructures/ADTTE/variables/SRCVAR", "title": "Source Variable", "type": "Analysis Variable"}}, "core": "Perm", "description": "The name of the column (in the domain or dataset identified by SRCDOM) that relates to the analysis variable. In the event that SRCDOM is a SUPPQUAL domain, then SRCVAR will be populated with the value of QNAM.", "label": "Source Variable", "name": "SRCVAR", "ordinal": "26", "simpleDatatype": "Char"}, {"_links": {"parentDatastructure": {"href": "/mdr/adam/adam-tte-1-0/datastructures/ADTTE", "title": "Basic Data Structure for Time to Event Analyses", "type": "Data Structure"}, "parentProduct": {"href": "/mdr/adam/adam-tte-1-0", "title": "ADaM Basic Data Structure for Time-to-Event Analyses Version 1.0", "type": "Implementation Guide"}, "parentVariableSet": {"href": "/mdr/adam/adam-tte-1-0/datastructures/ADTTE/varsets/DataPointTraceabilityVariables", "title": "Data Point Traceability Variables", "type": "Variable Set"}, "self": {"href": "/mdr/adam/adam-tte-1-0/datastructures/ADTTE/variables/SRCSEQ", "title": "Source Sequence Number", "type": "Analysis Variable"}}, "core": "Perm", "description": "The sequence number --SEQ or ASEQ of the row (in the domain or dataset identified by SRCDOM) that relates to the analysis variable.", "label": "Source Sequence Number", "name": "SRCSEQ", "ordinal": "27", "simpleDatatype": "Num"}], "label": "Data Point Traceability Variables", "name": "Data Point Traceability Variables", "ordinal": "6"}], "description": "One record per subject per parameter", "label": "Basic Data Structure for Time to Event Analyses", "name": "BDS for TTE", "ordinal": "1"}], "description": "The purpose of this document is to present the ADaM Basic Data Structure (BDS) for time-to-event (TTE) analyses. The TTE analyses can be applied to a broad range of clinical outcomes. The event might be single, composite, recurrent, or one of multiple potential events.", "effectiveDate": "2012-05-08", "label": "ADaM Basic Data Structure for Time-to-Event Analyses Version 1.0", "name": "ADaM BDS for TTE v1.0", "registrationStatus": "Final", "source": "Prepared by the CDISC Analysis Data Model (ADaM) Team", "version": "1.0"}
