{"_links": {"model": {"href": "/mdr/adam/adam-2-1", "title": "Analysis Data Model Version 2.1", "type": "Foundational Model"}, "self": {"href": "/mdr/adam/adam-poppk-1-0", "title": "Basic Data Structure for Population Pharmacokinetic (popPK) Analysis", "type": "Implementation Guide"}}, "dataStructures": [{"_links": {"parentProduct": {"href": "/mdr/adam/adam-poppk-1-0", "title": "Basic Data Structure for Population Pharmacokinetic (popPK) Analysis", "type": "Implementation Guide"}, "self": {"href": "/mdr/adam/adam-poppk-1-0/datastructures/ADPPK", "title": "Basic Data Structure Population Pharmacokinetic Analysis", "type": "Data Structure"}}, "analysisVariableSets": [{"_links": {"parentDatastructure": {"href": "/mdr/adam/adam-poppk-1-0/datastructures/ADPPK", "title": "Basic Data Structure Population Pharmacokinetic Analysis", "type": "Data Structure"}, "parentProduct": {"href": "/mdr/adam/adam-poppk-1-0", "title": "Basic Data Structure for Population Pharmacokinetic (popPK) Analysis", "type": "Implementation Guide"}, "self": {"href": "/mdr/adam/adam-poppk-1-0/datastructures/ADPPK/varsets/PopulationPharmacokineticsAnalysis", "title": "ADPPK Population Pharmacokinetics Analysis Variables", "type": "Variable Set"}}, "analysisVariables": [{"_links": {"parentDatastructure": {"href": "/mdr/adam/adam-poppk-1-0/datastructures/ADPPK", "title": "Basic Data Structure Population Pharmacokinetic Analysis", "type": "Data Structure"}, "parentProduct": {"href": "/mdr/adam/adam-poppk-1-0", "title": "Basic Data Structure for Population Pharmacokinetic (popPK) Analysis", "type": "Implementation Guide"}, "parentVariableSet": {"href": "/mdr/adam/adam-poppk-1-0/datastructures/ADPPK/varsets/PopulationPharmacokineticsAnalysis", "title": "ADPPK Population Pharmacokinetics Analysis Variables", "type": "Variable Set"}, "self": {"href": "/mdr/adam/adam-poppk-1-0/datastructures/ADPPK/variables/PROJID", "title": "Project Identifier", "type": "Analysis Variable"}}, "core": "Perm", "description": "Text representing protocol or compound name", "label": "Project Identifier", "name": "PROJID", "ordinal": "1", "simpleDatatype": "Char"}, {"_links": {"parentDatastructure": {"href": "/mdr/adam/adam-poppk-1-0/datastructures/ADPPK", "title": "Basic Data Structure Population Pharmacokinetic Analysis", "type": "Data Structure"}, "parentProduct": {"href": "/mdr/adam/adam-poppk-1-0", "title": "Basic Data Structure for Population Pharmacokinetic (popPK) Analysis", "type": "Implementation Guide"}, "parentVariableSet": {"href": "/mdr/adam/adam-poppk-1-0/datastructures/ADPPK/varsets/PopulationPharmacokineticsAnalysis", "title": "ADPPK Population Pharmacokinetics Analysis Variables", "type": "Variable Set"}, "self": {"href": "/mdr/adam/adam-poppk-1-0/datastructures/ADPPK/variables/PROJIDN", "title": "Project Identifier (N)", "type": "Analysis Variable"}}, "core": "Perm", "description": "Unique numerical representation of PROJID. The numeric versions of the primary/character variables can be assigned from its corresponding character pair variable.", "label": "Project Identifier (N)", "name": "PROJIDN", "ordinal": "2", "simpleDatatype": "Num"}, {"_links": {"parentDatastructure": {"href": "/mdr/adam/adam-poppk-1-0/datastructures/ADPPK", "title": "Basic Data Structure Population Pharmacokinetic Analysis", "type": "Data Structure"}, "parentProduct": {"href": "/mdr/adam/adam-poppk-1-0", "title": "Basic Data Structure for Population Pharmacokinetic (popPK) Analysis", "type": "Implementation Guide"}, "parentVariableSet": {"href": "/mdr/adam/adam-poppk-1-0/datastructures/ADPPK/varsets/PopulationPharmacokineticsAnalysis", "title": "ADPPK Population Pharmacokinetics Analysis Variables", "type": "Variable Set"}, "self": {"href": "/mdr/adam/adam-poppk-1-0/datastructures/ADPPK/variables/STUDYID", "title": "Study Identifier", "type": "Analysis Variable"}}, "core": "Req", "description": "STUDYID. Must be identical to the ADSL variable.", "label": "Study Identifier", "name": "STUDYID", "ordinal": "3", "simpleDatatype": "Char"}, {"_links": {"parentDatastructure": {"href": "/mdr/adam/adam-poppk-1-0/datastructures/ADPPK", "title": "Basic Data Structure Population Pharmacokinetic Analysis", "type": "Data Structure"}, "parentProduct": {"href": "/mdr/adam/adam-poppk-1-0", "title": "Basic Data Structure for Population Pharmacokinetic (popPK) Analysis", "type": "Implementation Guide"}, "parentVariableSet": {"href": "/mdr/adam/adam-poppk-1-0/datastructures/ADPPK/varsets/PopulationPharmacokineticsAnalysis", "title": "ADPPK Population Pharmacokinetics Analysis Variables", "type": "Variable Set"}, "self": {"href": "/mdr/adam/adam-poppk-1-0/datastructures/ADPPK/variables/STUDYIDN", "title": "Study Identifier (N)", "type": "Analysis Variable"}}, "core": "Perm", "description": "Unique numerical representation of STUDYID. The numeric versions of the primary/character variables can be assigned from its corresponding character pair variable.", "label": "Study Identifier (N)", "name": "STUDYIDN", "ordinal": "4", "simpleDatatype": "Num"}, {"_links": {"parentDatastructure": {"href": "/mdr/adam/adam-poppk-1-0/datastructures/ADPPK", "title": "Basic Data Structure Population Pharmacokinetic Analysis", "type": "Data Structure"}, "parentProduct": {"href": "/mdr/adam/adam-poppk-1-0", "title": "Basic Data Structure for Population Pharmacokinetic (popPK) Analysis", "type": "Implementation Guide"}, "parentVariableSet": {"href": "/mdr/adam/adam-poppk-1-0/datastructures/ADPPK/varsets/PopulationPharmacokineticsAnalysis", "title": "ADPPK Population Pharmacokinetics Analysis Variables", "type": "Variable Set"}, "self": {"href": "/mdr/adam/adam-poppk-1-0/datastructures/ADPPK/variables/PART", "title": "Part of the Study", "type": "Analysis Variable"}}, "core": "Cond", "description": "As defined per protocol. Required when study has more than 1 part ( e.g., part A, dose escalation and part B, dose evaluation). In SDTM it is mapped in STUDYID by some sponsor companies.", "label": "Part of the Study", "name": "PART", "ordinal": "5", "simpleDatatype": "Num"}, {"_links": {"parentDatastructure": {"href": "/mdr/adam/adam-poppk-1-0/datastructures/ADPPK", "title": "Basic Data Structure Population Pharmacokinetic Analysis", "type": "Data Structure"}, "parentProduct": {"href": "/mdr/adam/adam-poppk-1-0", "title": "Basic Data Structure for Population Pharmacokinetic (popPK) Analysis", "type": "Implementation Guide"}, "parentVariableSet": {"href": "/mdr/adam/adam-poppk-1-0/datastructures/ADPPK/varsets/PopulationPharmacokineticsAnalysis", "title": "ADPPK Population Pharmacokinetics Analysis Variables", "type": "Variable Set"}, "self": {"href": "/mdr/adam/adam-poppk-1-0/datastructures/ADPPK/variables/SUBJTYP", "title": "Subject Type", "type": "Analysis Variable"}}, "core": "Perm", "description": "Unique numerical representation of subject type.", "label": "Subject Type", "name": "SUBJTYP", "ordinal": "6", "simpleDatatype": "Num"}, {"_links": {"parentDatastructure": {"href": "/mdr/adam/adam-poppk-1-0/datastructures/ADPPK", "title": "Basic Data Structure Population Pharmacokinetic Analysis", "type": "Data Structure"}, "parentProduct": {"href": "/mdr/adam/adam-poppk-1-0", "title": "Basic Data Structure for Population Pharmacokinetic (popPK) Analysis", "type": "Implementation Guide"}, "parentVariableSet": {"href": "/mdr/adam/adam-poppk-1-0/datastructures/ADPPK/varsets/PopulationPharmacokineticsAnalysis", "title": "ADPPK Population Pharmacokinetics Analysis Variables", "type": "Variable Set"}, "self": {"href": "/mdr/adam/adam-poppk-1-0/datastructures/ADPPK/variables/SUBJTYPC", "title": "Subject Type (C)", "type": "Analysis Variable"}}, "core": "Perm", "description": "Unique character representation of SUBJTYP. For first-in-human studies, the value can be \"Healthy volunteers\".", "label": "Subject Type (C)", "name": "SUBJTYPC", "ordinal": "7", "simpleDatatype": "Char"}, {"_links": {"parentDatastructure": {"href": "/mdr/adam/adam-poppk-1-0/datastructures/ADPPK", "title": "Basic Data Structure Population Pharmacokinetic Analysis", "type": "Data Structure"}, "parentProduct": {"href": "/mdr/adam/adam-poppk-1-0", "title": "Basic Data Structure for Population Pharmacokinetic (popPK) Analysis", "type": "Implementation Guide"}, "parentVariableSet": {"href": "/mdr/adam/adam-poppk-1-0/datastructures/ADPPK/varsets/PopulationPharmacokineticsAnalysis", "title": "ADPPK Population Pharmacokinetics Analysis Variables", "type": "Variable Set"}, "self": {"href": "/mdr/adam/adam-poppk-1-0/datastructures/ADPPK/variables/USUBJID", "title": "Unique Subject Identifier", "type": "Analysis Variable"}}, "core": "Req", "description": "Must be identical to the ADSL variable.", "label": "Unique Subject Identifier", "name": "USUBJID", "ordinal": "8", "simpleDatatype": "Char"}, {"_links": {"parentDatastructure": {"href": "/mdr/adam/adam-poppk-1-0/datastructures/ADPPK", "title": "Basic Data Structure Population Pharmacokinetic Analysis", "type": "Data Structure"}, "parentProduct": {"href": "/mdr/adam/adam-poppk-1-0", "title": "Basic Data Structure for Population Pharmacokinetic (popPK) Analysis", "type": "Implementation Guide"}, "parentVariableSet": {"href": "/mdr/adam/adam-poppk-1-0/datastructures/ADPPK/varsets/PopulationPharmacokineticsAnalysis", "title": "ADPPK Population Pharmacokinetics Analysis Variables", "type": "Variable Set"}, "self": {"href": "/mdr/adam/adam-poppk-1-0/datastructures/ADPPK/variables/USUBJIDN", "title": "Unique Subject Identifier (N)", "type": "Analysis Variable"}}, "core": "Req", "description": "Unique numerical representation of USUBJID.", "label": "Unique Subject Identifier (N)", "name": "USUBJIDN", "ordinal": "9", "simpleDatatype": "Num"}, {"_links": {"parentDatastructure": {"href": "/mdr/adam/adam-poppk-1-0/datastructures/ADPPK", "title": "Basic Data Structure Population Pharmacokinetic Analysis", "type": "Data Structure"}, "parentProduct": {"href": "/mdr/adam/adam-poppk-1-0", "title": "Basic Data Structure for Population Pharmacokinetic (popPK) Analysis", "type": "Implementation Guide"}, "parentVariableSet": {"href": "/mdr/adam/adam-poppk-1-0/datastructures/ADPPK/varsets/PopulationPharmacokineticsAnalysis", "title": "ADPPK Population Pharmacokinetics Analysis Variables", "type": "Variable Set"}, "self": {"href": "/mdr/adam/adam-poppk-1-0/datastructures/ADPPK/variables/SUBJID", "title": "Subject Identifier for the Study", "type": "Analysis Variable"}}, "core": "Perm", "description": "Must be identical to the ADSL variable.", "label": "Subject Identifier for the Study", "name": "SUBJID", "ordinal": "10", "simpleDatatype": "Char"}, {"_links": {"parentDatastructure": {"href": "/mdr/adam/adam-poppk-1-0/datastructures/ADPPK", "title": "Basic Data Structure Population Pharmacokinetic Analysis", "type": "Data Structure"}, "parentProduct": {"href": "/mdr/adam/adam-poppk-1-0", "title": "Basic Data Structure for Population Pharmacokinetic (popPK) Analysis", "type": "Implementation Guide"}, "parentVariableSet": {"href": "/mdr/adam/adam-poppk-1-0/datastructures/ADPPK/varsets/PopulationPharmacokineticsAnalysis", "title": "ADPPK Population Pharmacokinetics Analysis Variables", "type": "Variable Set"}, "self": {"href": "/mdr/adam/adam-poppk-1-0/datastructures/ADPPK/variables/SUBJIDN", "title": "Subject Identifier for the Study (N)", "type": "Analysis Variable"}}, "core": "Perm", "description": "Unique numerical representation of SUBJID. The numeric versions of the primary/character variables can be assigned from its corresponding character pair variable.", "label": "Subject Identifier for the Study (N)", "name": "SUBJIDN", "ordinal": "11", "simpleDatatype": "Num"}, {"_links": {"parentDatastructure": {"href": "/mdr/adam/adam-poppk-1-0/datastructures/ADPPK", "title": "Basic Data Structure Population Pharmacokinetic Analysis", "type": "Data Structure"}, "parentProduct": {"href": "/mdr/adam/adam-poppk-1-0", "title": "Basic Data Structure for Population Pharmacokinetic (popPK) Analysis", "type": "Implementation Guide"}, "parentVariableSet": {"href": "/mdr/adam/adam-poppk-1-0/datastructures/ADPPK/varsets/PopulationPharmacokineticsAnalysis", "title": "ADPPK Population Pharmacokinetics Analysis Variables", "type": "Variable Set"}, "self": {"href": "/mdr/adam/adam-poppk-1-0/datastructures/ADPPK/variables/SITEID", "title": "Study Site Identifier", "type": "Analysis Variable"}}, "core": "Perm", "description": "Must be identical to the ADSL variable.", "label": "Study Site Identifier", "name": "SITEID", "ordinal": "12", "simpleDatatype": "Char"}, {"_links": {"parentDatastructure": {"href": "/mdr/adam/adam-poppk-1-0/datastructures/ADPPK", "title": "Basic Data Structure Population Pharmacokinetic Analysis", "type": "Data Structure"}, "parentProduct": {"href": "/mdr/adam/adam-poppk-1-0", "title": "Basic Data Structure for Population Pharmacokinetic (popPK) Analysis", "type": "Implementation Guide"}, "parentVariableSet": {"href": "/mdr/adam/adam-poppk-1-0/datastructures/ADPPK/varsets/PopulationPharmacokineticsAnalysis", "title": "ADPPK Population Pharmacokinetics Analysis Variables", "type": "Variable Set"}, "self": {"href": "/mdr/adam/adam-poppk-1-0/datastructures/ADPPK/variables/SITEIDN", "title": "Study Site Identifier (N)", "type": "Analysis Variable"}}, "core": "Perm", "description": "Unique numerical representation of SITEID. The numeric versions of the primary/character variables can be assigned from its corresponding character pair variable.", "label": "Study Site Identifier (N)", "name": "SITEIDN", "ordinal": "13", "simpleDatatype": "Num"}, {"_links": {"parentDatastructure": {"href": "/mdr/adam/adam-poppk-1-0/datastructures/ADPPK", "title": "Basic Data Structure Population Pharmacokinetic Analysis", "type": "Data Structure"}, "parentProduct": {"href": "/mdr/adam/adam-poppk-1-0", "title": "Basic Data Structure for Population Pharmacokinetic (popPK) Analysis", "type": "Implementation Guide"}, "parentVariableSet": {"href": "/mdr/adam/adam-poppk-1-0/datastructures/ADPPK/varsets/PopulationPharmacokineticsAnalysis", "title": "ADPPK Population Pharmacokinetics Analysis Variables", "type": "Variable Set"}, "self": {"href": "/mdr/adam/adam-poppk-1-0/datastructures/ADPPK/variables/RECSEQ", "title": "Record Sequence", "type": "Analysis Variable"}}, "core": "Perm", "description": "Derived sequence for the whole dataset. Sequential values should start with 1 on the first non-header row of the data file (i.e., skipping the variable names) and incrementing by 1 for each subsequent row. These are basically row numbers. It is often used for convenience purposes and merging of PK and PD datasets. It can also be useful for the tracking of outlier exclusion, since the variable is preserved from the original to the final dataset.", "label": "Record Sequence", "name": "RECSEQ", "ordinal": "14", "simpleDatatype": "Num"}, {"_links": {"parentDatastructure": {"href": "/mdr/adam/adam-poppk-1-0/datastructures/ADPPK", "title": "Basic Data Structure Population Pharmacokinetic Analysis", "type": "Data Structure"}, "parentProduct": {"href": "/mdr/adam/adam-poppk-1-0", "title": "Basic Data Structure for Population Pharmacokinetic (popPK) Analysis", "type": "Implementation Guide"}, "parentVariableSet": {"href": "/mdr/adam/adam-poppk-1-0/datastructures/ADPPK/varsets/PopulationPharmacokineticsAnalysis", "title": "ADPPK Population Pharmacokinetics Analysis Variables", "type": "Variable Set"}, "self": {"href": "/mdr/adam/adam-poppk-1-0/datastructures/ADPPK/variables/AFRLT", "title": "Actual Rel Time from First Dose", "type": "Analysis Variable"}}, "core": "Req", "description": "Actual elapsed time (for sample point or start of sampling interval) from first exposure to study treatment. Could be negative. Derived from (ADTM of the current event/record of the subject) - (ADTM of the first dosing event/record of the subject).", "label": "Actual Rel Time from First Dose", "name": "AFRLT", "ordinal": "15", "simpleDatatype": "Num"}, {"_links": {"parentDatastructure": {"href": "/mdr/adam/adam-poppk-1-0/datastructures/ADPPK", "title": "Basic Data Structure Population Pharmacokinetic Analysis", "type": "Data Structure"}, "parentProduct": {"href": "/mdr/adam/adam-poppk-1-0", "title": "Basic Data Structure for Population Pharmacokinetic (popPK) Analysis", "type": "Implementation Guide"}, "parentVariableSet": {"href": "/mdr/adam/adam-poppk-1-0/datastructures/ADPPK/varsets/PopulationPharmacokineticsAnalysis", "title": "ADPPK Population Pharmacokinetics Analysis Variables", "type": "Variable Set"}, "self": {"href": "/mdr/adam/adam-poppk-1-0/datastructures/ADPPK/variables/RLTU", "title": "Relative Time Unit", "type": "Analysis Variable"}}, "core": "Perm", "description": "Units for all reference times AFRLT, APRLT, NFRLT, NPRLT. Add the unit here or in the time variable label.", "label": "Relative Time Unit", "name": "RLTU", "ordinal": "16", "simpleDatatype": "Char"}, {"_links": {"parentDatastructure": {"href": "/mdr/adam/adam-poppk-1-0/datastructures/ADPPK", "title": "Basic Data Structure Population Pharmacokinetic Analysis", "type": "Data Structure"}, "parentProduct": {"href": "/mdr/adam/adam-poppk-1-0", "title": "Basic Data Structure for Population Pharmacokinetic (popPK) Analysis", "type": "Implementation Guide"}, "parentVariableSet": {"href": "/mdr/adam/adam-poppk-1-0/datastructures/ADPPK/varsets/PopulationPharmacokineticsAnalysis", "title": "ADPPK Population Pharmacokinetics Analysis Variables", "type": "Variable Set"}, "self": {"href": "/mdr/adam/adam-poppk-1-0/datastructures/ADPPK/variables/APRLT", "title": "Actual Rel Time from Previous Dose", "type": "Analysis Variable"}}, "core": "Perm", "description": "Derived from (ADTM of the current event/record of the subject) - (ADTM of the previous dosing event/record of the subject).", "label": "Actual Rel Time from Previous Dose", "name": "APRLT", "ordinal": "17", "simpleDatatype": "Num"}, {"_links": {"parentDatastructure": {"href": "/mdr/adam/adam-poppk-1-0/datastructures/ADPPK", "title": "Basic Data Structure Population Pharmacokinetic Analysis", "type": "Data Structure"}, "parentProduct": {"href": "/mdr/adam/adam-poppk-1-0", "title": "Basic Data Structure for Population Pharmacokinetic (popPK) Analysis", "type": "Implementation Guide"}, "parentVariableSet": {"href": "/mdr/adam/adam-poppk-1-0/datastructures/ADPPK/varsets/PopulationPharmacokineticsAnalysis", "title": "ADPPK Population Pharmacokinetics Analysis Variables", "type": "Variable Set"}, "self": {"href": "/mdr/adam/adam-poppk-1-0/datastructures/ADPPK/variables/NFRLT", "title": "Nominal Rel Time from First Dose", "type": "Analysis Variable"}}, "core": "Perm", "description": "Planned elapsed time (for sample point or start of sampling interval) from first exposure to study treatment. For PK it will be in the PC dataset.", "label": "Nominal Rel Time from First Dose", "name": "NFRLT", "ordinal": "18", "simpleDatatype": "Num"}, {"_links": {"parentDatastructure": {"href": "/mdr/adam/adam-poppk-1-0/datastructures/ADPPK", "title": "Basic Data Structure Population Pharmacokinetic Analysis", "type": "Data Structure"}, "parentProduct": {"href": "/mdr/adam/adam-poppk-1-0", "title": "Basic Data Structure for Population Pharmacokinetic (popPK) Analysis", "type": "Implementation Guide"}, "parentVariableSet": {"href": "/mdr/adam/adam-poppk-1-0/datastructures/ADPPK/varsets/PopulationPharmacokineticsAnalysis", "title": "ADPPK Population Pharmacokinetics Analysis Variables", "type": "Variable Set"}, "self": {"href": "/mdr/adam/adam-poppk-1-0/datastructures/ADPPK/variables/NPRLT", "title": "Nominal Rel Time from Previous Dose", "type": "Analysis Variable"}}, "core": "Perm", "description": "For PK it can be derived from \"planned elapsed time (for sample point or start of sampling interval) from reference exposure to study treatment\" or equivalent variable that has nominal time in the PC dataset.", "label": "Nominal Rel Time from Previous Dose", "name": "NPRLT", "ordinal": "19", "simpleDatatype": "Num"}, {"_links": {"parentDatastructure": {"href": "/mdr/adam/adam-poppk-1-0/datastructures/ADPPK", "title": "Basic Data Structure Population Pharmacokinetic Analysis", "type": "Data Structure"}, "parentProduct": {"href": "/mdr/adam/adam-poppk-1-0", "title": "Basic Data Structure for Population Pharmacokinetic (popPK) Analysis", "type": "Implementation Guide"}, "parentVariableSet": {"href": "/mdr/adam/adam-poppk-1-0/datastructures/ADPPK/varsets/PopulationPharmacokineticsAnalysis", "title": "ADPPK Population Pharmacokinetics Analysis Variables", "type": "Variable Set"}, "self": {"href": "/mdr/adam/adam-poppk-1-0/datastructures/ADPPK/variables/OCC", "title": "Occasion", "type": "Analysis Variable"}}, "core": "Perm", "description": "Occasion is a grouping variable. It groups dose and concentration observations for a particular dosing. The implementation is taken directly from the specs/protocol and defined by the modeler. This is a popPK software variable.", "label": "Occasion", "name": "OCC", "ordinal": "20", "simpleDatatype": "Num"}, {"_links": {"parentDatastructure": {"href": "/mdr/adam/adam-poppk-1-0/datastructures/ADPPK", "title": "Basic Data Structure Population Pharmacokinetic Analysis", "type": "Data Structure"}, "parentProduct": {"href": "/mdr/adam/adam-poppk-1-0", "title": "Basic Data Structure for Population Pharmacokinetic (popPK) Analysis", "type": "Implementation Guide"}, "parentVariableSet": {"href": "/mdr/adam/adam-poppk-1-0/datastructures/ADPPK/varsets/PopulationPharmacokineticsAnalysis", "title": "ADPPK Population Pharmacokinetics Analysis Variables", "type": "Variable Set"}, "self": {"href": "/mdr/adam/adam-poppk-1-0/datastructures/ADPPK/variables/EXCLF", "title": "Record Exclusion", "type": "Analysis Variable"}}, "core": "Cond", "description": "It can be captured prior to the modeling or after some analysis, with possible iterations and adjustments. Some possible reasons: BLOQ, biological implausibility, IWER > threshold, incorrect dosing information. There can be several reasons for flagging data during the dataset creation (e.g., day 1 pre-dose samples, missing sample information, deviation of actual time from nominal time > threshold).", "label": "Record Exclusion", "name": "EXCLF", "ordinal": "21", "simpleDatatype": "Num"}, {"_links": {"parentDatastructure": {"href": "/mdr/adam/adam-poppk-1-0/datastructures/ADPPK", "title": "Basic Data Structure Population Pharmacokinetic Analysis", "type": "Data Structure"}, "parentProduct": {"href": "/mdr/adam/adam-poppk-1-0", "title": "Basic Data Structure for Population Pharmacokinetic (popPK) Analysis", "type": "Implementation Guide"}, "parentVariableSet": {"href": "/mdr/adam/adam-poppk-1-0/datastructures/ADPPK/varsets/PopulationPharmacokineticsAnalysis", "title": "ADPPK Population Pharmacokinetics Analysis Variables", "type": "Variable Set"}, "self": {"href": "/mdr/adam/adam-poppk-1-0/datastructures/ADPPK/variables/EXCLFCOM", "title": "Comment for the Record Exclusion", "type": "Analysis Variable"}}, "core": "Cond", "description": "It can be captured prior to the modeling or after some analysis, with possible iterations and adjustments. Some possible reasons: BLOQ, biological implausibility, outlier based on variability metrics, incorrect dosing information, day 1 pre-dose sample. This can also be coded through numbers that are connected with different reasons. Based on data specification. Could come from multiple sources (e.g., SDTM or ADaM source, CRITyFN variable). Examples of exclusions can be found in Section 3.4, Standard Flags and Record Identifiers in Population PK Dataset.", "label": "Comment for the Record Exclusion", "name": "EXCLFCOM", "ordinal": "22", "simpleDatatype": "Char"}, {"_links": {"parentDatastructure": {"href": "/mdr/adam/adam-poppk-1-0/datastructures/ADPPK", "title": "Basic Data Structure Population Pharmacokinetic Analysis", "type": "Data Structure"}, "parentProduct": {"href": "/mdr/adam/adam-poppk-1-0", "title": "Basic Data Structure for Population Pharmacokinetic (popPK) Analysis", "type": "Implementation Guide"}, "parentVariableSet": {"href": "/mdr/adam/adam-poppk-1-0/datastructures/ADPPK/varsets/PopulationPharmacokineticsAnalysis", "title": "ADPPK Population Pharmacokinetics Analysis Variables", "type": "Variable Set"}, "self": {"href": "/mdr/adam/adam-poppk-1-0/datastructures/ADPPK/variables/FLGREAS", "title": "Identification of Data Issue Reason", "type": "Analysis Variable"}}, "core": "Perm", "description": "Captures primary reason for identifying the record for data issues (e.g., dose time imputation flags). A sequential number starting with 1 and increments with each unique reason. Examples of reasons for identification of data issue can be found in Section 3.4, Standard Flags and Record Identifiers in Population PK Dataset.", "label": "Identification of Data Issue Reason", "name": "FLGREAS", "ordinal": "23", "simpleDatatype": "Num"}, {"_links": {"parentDatastructure": {"href": "/mdr/adam/adam-poppk-1-0/datastructures/ADPPK", "title": "Basic Data Structure Population Pharmacokinetic Analysis", "type": "Data Structure"}, "parentProduct": {"href": "/mdr/adam/adam-poppk-1-0", "title": "Basic Data Structure for Population Pharmacokinetic (popPK) Analysis", "type": "Implementation Guide"}, "parentVariableSet": {"href": "/mdr/adam/adam-poppk-1-0/datastructures/ADPPK/varsets/PopulationPharmacokineticsAnalysis", "title": "ADPPK Population Pharmacokinetics Analysis Variables", "type": "Variable Set"}, "self": {"href": "/mdr/adam/adam-poppk-1-0/datastructures/ADPPK/variables/FLGREASC", "title": "Identification of Data Issue Reason (C)", "type": "Analysis Variable"}}, "core": "Perm", "description": "Character version of FLGREAS.", "label": "Identification of Data Issue Reason (C)", "name": "FLGREASC", "ordinal": "24", "simpleDatatype": "Char"}, {"_links": {"parentDatastructure": {"href": "/mdr/adam/adam-poppk-1-0/datastructures/ADPPK", "title": "Basic Data Structure Population Pharmacokinetic Analysis", "type": "Data Structure"}, "parentProduct": {"href": "/mdr/adam/adam-poppk-1-0", "title": "Basic Data Structure for Population Pharmacokinetic (popPK) Analysis", "type": "Implementation Guide"}, "parentVariableSet": {"href": "/mdr/adam/adam-poppk-1-0/datastructures/ADPPK/varsets/PopulationPharmacokineticsAnalysis", "title": "ADPPK Population Pharmacokinetics Analysis Variables", "type": "Variable Set"}, "self": {"href": "/mdr/adam/adam-poppk-1-0/datastructures/ADPPK/variables/EVID", "title": "Event ID", "type": "Analysis Variable"}}, "core": "Req", "description": "EVID=1 is Dosing Event, EVID=0 is observation. \\n It can be expanded to other numbers as defined in the dataset specs. This is a popPK software variable.", "label": "Event ID", "name": "EVID", "ordinal": "25", "simpleDatatype": "Num"}, {"_links": {"parentDatastructure": {"href": "/mdr/adam/adam-poppk-1-0/datastructures/ADPPK", "title": "Basic Data Structure Population Pharmacokinetic Analysis", "type": "Data Structure"}, "parentProduct": {"href": "/mdr/adam/adam-poppk-1-0", "title": "Basic Data Structure for Population Pharmacokinetic (popPK) Analysis", "type": "Implementation Guide"}, "parentVariableSet": {"href": "/mdr/adam/adam-poppk-1-0/datastructures/ADPPK/varsets/PopulationPharmacokineticsAnalysis", "title": "ADPPK Population Pharmacokinetics Analysis Variables", "type": "Variable Set"}, "self": {"href": "/mdr/adam/adam-poppk-1-0/datastructures/ADPPK/variables/DVID", "title": "Dependent Variable Name", "type": "Analysis Variable"}}, "core": "Perm", "description": "Analyte/drug name/other measurements (e.g., PC.PCTEST for PK, EX or ADEX for dose, ADLB for labs).", "label": "Dependent Variable Name", "name": "DVID", "ordinal": "26", "simpleDatatype": "Char"}, {"_links": {"parentDatastructure": {"href": "/mdr/adam/adam-poppk-1-0/datastructures/ADPPK", "title": "Basic Data Structure Population Pharmacokinetic Analysis", "type": "Data Structure"}, "parentProduct": {"href": "/mdr/adam/adam-poppk-1-0", "title": "Basic Data Structure for Population Pharmacokinetic (popPK) Analysis", "type": "Implementation Guide"}, "parentVariableSet": {"href": "/mdr/adam/adam-poppk-1-0/datastructures/ADPPK/varsets/PopulationPharmacokineticsAnalysis", "title": "ADPPK Population Pharmacokinetics Analysis Variables", "type": "Variable Set"}, "self": {"href": "/mdr/adam/adam-poppk-1-0/datastructures/ADPPK/variables/DVIDN", "title": "Dependent Variable Name (N)", "type": "Analysis Variable"}}, "core": "Perm", "description": "Unique numerical representation of DVID. Convention is normally 0=dose, 1=for the first observation of interest, etc. The numeric versions of the primary/character variables can be assigned from its corresponding character pair variable.", "label": "Dependent Variable Name (N)", "name": "DVIDN", "ordinal": "27", "simpleDatatype": "Num"}, {"_links": {"parentDatastructure": {"href": "/mdr/adam/adam-poppk-1-0/datastructures/ADPPK", "title": "Basic Data Structure Population Pharmacokinetic Analysis", "type": "Data Structure"}, "parentProduct": {"href": "/mdr/adam/adam-poppk-1-0", "title": "Basic Data Structure for Population Pharmacokinetic (popPK) Analysis", "type": "Implementation Guide"}, "parentVariableSet": {"href": "/mdr/adam/adam-poppk-1-0/datastructures/ADPPK/varsets/PopulationPharmacokineticsAnalysis", "title": "ADPPK Population Pharmacokinetics Analysis Variables", "type": "Variable Set"}, "self": {"href": "/mdr/adam/adam-poppk-1-0/datastructures/ADPPK/variables/CMT", "title": "Compartment", "type": "Analysis Variable"}}, "core": "Perm", "description": "Derived based on the specifications from modeler. This is a popPK software variable.", "label": "Compartment", "name": "CMT", "ordinal": "28", "simpleDatatype": "Num"}, {"_links": {"parentDatastructure": {"href": "/mdr/adam/adam-poppk-1-0/datastructures/ADPPK", "title": "Basic Data Structure Population Pharmacokinetic Analysis", "type": "Data Structure"}, "parentProduct": {"href": "/mdr/adam/adam-poppk-1-0", "title": "Basic Data Structure for Population Pharmacokinetic (popPK) Analysis", "type": "Implementation Guide"}, "parentVariableSet": {"href": "/mdr/adam/adam-poppk-1-0/datastructures/ADPPK/varsets/PopulationPharmacokineticsAnalysis", "title": "ADPPK Population Pharmacokinetics Analysis Variables", "type": "Variable Set"}, "self": {"href": "/mdr/adam/adam-poppk-1-0/datastructures/ADPPK/variables/DV", "title": "Dependent Variable Result", "type": "Analysis Variable"}}, "core": "Req", "description": "Numeric result of dependent variable applicable to observation events. DV is a widely used notation in the field of pharmacometrics since its inception for the value of dependent variable (observation). This is a copy of AVAL.", "label": "Dependent Variable Result", "name": "DV", "ordinal": "29", "simpleDatatype": "Num"}, {"_links": {"parentDatastructure": {"href": "/mdr/adam/adam-poppk-1-0/datastructures/ADPPK", "title": "Basic Data Structure Population Pharmacokinetic Analysis", "type": "Data Structure"}, "parentProduct": {"href": "/mdr/adam/adam-poppk-1-0", "title": "Basic Data Structure for Population Pharmacokinetic (popPK) Analysis", "type": "Implementation Guide"}, "parentVariableSet": {"href": "/mdr/adam/adam-poppk-1-0/datastructures/ADPPK/varsets/PopulationPharmacokineticsAnalysis", "title": "ADPPK Population Pharmacokinetics Analysis Variables", "type": "Variable Set"}, "self": {"href": "/mdr/adam/adam-poppk-1-0/datastructures/ADPPK/variables/AVAL", "title": "Analysis Value", "type": "Analysis Variable"}}, "core": "Cond", "description": "Numeric analysis value described by PARAM.", "label": "Analysis Value", "name": "AVAL", "ordinal": "30", "simpleDatatype": "Num"}, {"_links": {"parentDatastructure": {"href": "/mdr/adam/adam-poppk-1-0/datastructures/ADPPK", "title": "Basic Data Structure Population Pharmacokinetic Analysis", "type": "Data Structure"}, "parentProduct": {"href": "/mdr/adam/adam-poppk-1-0", "title": "Basic Data Structure for Population Pharmacokinetic (popPK) Analysis", "type": "Implementation Guide"}, "parentVariableSet": {"href": "/mdr/adam/adam-poppk-1-0/datastructures/ADPPK/varsets/PopulationPharmacokineticsAnalysis", "title": "ADPPK Population Pharmacokinetics Analysis Variables", "type": "Variable Set"}, "self": {"href": "/mdr/adam/adam-poppk-1-0/datastructures/ADPPK/variables/AVALU", "title": "Dependent Variable Unit", "type": "Analysis Variable"}}, "core": "Perm", "description": "Unit for DV and AVAL", "label": "Dependent Variable Unit", "name": "AVALU", "ordinal": "31", "simpleDatatype": "Char"}, {"_links": {"parentDatastructure": {"href": "/mdr/adam/adam-poppk-1-0/datastructures/ADPPK", "title": "Basic Data Structure Population Pharmacokinetic Analysis", "type": "Data Structure"}, "parentProduct": {"href": "/mdr/adam/adam-poppk-1-0", "title": "Basic Data Structure for Population Pharmacokinetic (popPK) Analysis", "type": "Implementation Guide"}, "parentVariableSet": {"href": "/mdr/adam/adam-poppk-1-0/datastructures/ADPPK/varsets/PopulationPharmacokineticsAnalysis", "title": "ADPPK Population Pharmacokinetics Analysis Variables", "type": "Variable Set"}, "self": {"href": "/mdr/adam/adam-poppk-1-0/datastructures/ADPPK/variables/USTRESC", "title": "Result or Finding in Standard Format", "type": "Analysis Variable"}}, "core": "Perm", "description": "Character results/findings of dependent variable in a standard format. The purpose of this column is to capture which records are BLQ or ALQ in the DV column; for example, PC.PCSTRESC (SDTM), AVAL (ADaM). U is a replacement for the dataset name from where the value came from (e.g., USTRESC is equal to PCSTRESC for PC records).", "label": "Result or Finding in Standard Format", "name": "USTRESC", "ordinal": "32", "simpleDatatype": "Char"}, {"_links": {"parentDatastructure": {"href": "/mdr/adam/adam-poppk-1-0/datastructures/ADPPK", "title": "Basic Data Structure Population Pharmacokinetic Analysis", "type": "Data Structure"}, "parentProduct": {"href": "/mdr/adam/adam-poppk-1-0", "title": "Basic Data Structure for Population Pharmacokinetic (popPK) Analysis", "type": "Implementation Guide"}, "parentVariableSet": {"href": "/mdr/adam/adam-poppk-1-0/datastructures/ADPPK/varsets/PopulationPharmacokineticsAnalysis", "title": "ADPPK Population Pharmacokinetics Analysis Variables", "type": "Variable Set"}, "self": {"href": "/mdr/adam/adam-poppk-1-0/datastructures/ADPPK/variables/MDV", "title": "Missing Dependent Variable Result", "type": "Analysis Variable"}}, "core": "Req", "description": "If DV= . then MDV=1. \\n (When DV is missing for observation then MDV=1, when EVID=1 then MDV=1) \\n This is a popPK software variable.", "label": "Missing Dependent Variable Result", "name": "MDV", "ordinal": "33", "simpleDatatype": "Num", "valueList": ["0", "1"]}, {"_links": {"parentDatastructure": {"href": "/mdr/adam/adam-poppk-1-0/datastructures/ADPPK", "title": "Basic Data Structure Population Pharmacokinetic Analysis", "type": "Data Structure"}, "parentProduct": {"href": "/mdr/adam/adam-poppk-1-0", "title": "Basic Data Structure for Population Pharmacokinetic (popPK) Analysis", "type": "Implementation Guide"}, "parentVariableSet": {"href": "/mdr/adam/adam-poppk-1-0/datastructures/ADPPK/varsets/PopulationPharmacokineticsAnalysis", "title": "ADPPK Population Pharmacokinetics Analysis Variables", "type": "Variable Set"}, "self": {"href": "/mdr/adam/adam-poppk-1-0/datastructures/ADPPK/variables/AULOQ", "title": "Analysis Upper Limit of Quantitation", "type": "Analysis Variable"}}, "core": "Perm", "description": "In assay report", "label": "Analysis Upper Limit of Quantitation", "name": "AULOQ", "ordinal": "34", "simpleDatatype": "Num"}, {"_links": {"parentDatastructure": {"href": "/mdr/adam/adam-poppk-1-0/datastructures/ADPPK", "title": "Basic Data Structure Population Pharmacokinetic Analysis", "type": "Data Structure"}, "parentProduct": {"href": "/mdr/adam/adam-poppk-1-0", "title": "Basic Data Structure for Population Pharmacokinetic (popPK) Analysis", "type": "Implementation Guide"}, "parentVariableSet": {"href": "/mdr/adam/adam-poppk-1-0/datastructures/ADPPK/varsets/PopulationPharmacokineticsAnalysis", "title": "ADPPK Population Pharmacokinetics Analysis Variables", "type": "Variable Set"}, "self": {"href": "/mdr/adam/adam-poppk-1-0/datastructures/ADPPK/variables/ALLOQ", "title": "Analysis Lower Limit of Quantitation", "type": "Analysis Variable"}}, "core": "Perm", "description": "LLOQ of PK, PD and any other sources", "label": "Analysis Lower Limit of Quantitation", "name": "ALLOQ", "ordinal": "35", "simpleDatatype": "Num"}, {"_links": {"parentDatastructure": {"href": "/mdr/adam/adam-poppk-1-0/datastructures/ADPPK", "title": "Basic Data Structure Population Pharmacokinetic Analysis", "type": "Data Structure"}, "parentProduct": {"href": "/mdr/adam/adam-poppk-1-0", "title": "Basic Data Structure for Population Pharmacokinetic (popPK) Analysis", "type": "Implementation Guide"}, "parentVariableSet": {"href": "/mdr/adam/adam-poppk-1-0/datastructures/ADPPK/varsets/PopulationPharmacokineticsAnalysis", "title": "ADPPK Population Pharmacokinetics Analysis Variables", "type": "Variable Set"}, "self": {"href": "/mdr/adam/adam-poppk-1-0/datastructures/ADPPK/variables/BLQFL", "title": "Below Lower Limit of Quant Flag", "type": "Analysis Variable"}}, "core": "Cond", "description": "N, Y. Set to Y when the analysis value is below the limit of quantification.", "label": "Below Lower Limit of Quant Flag", "name": "BLQFL", "ordinal": "36", "simpleDatatype": "Char", "valueList": ["N", "Y"]}, {"_links": {"parentDatastructure": {"href": "/mdr/adam/adam-poppk-1-0/datastructures/ADPPK", "title": "Basic Data Structure Population Pharmacokinetic Analysis", "type": "Data Structure"}, "parentProduct": {"href": "/mdr/adam/adam-poppk-1-0", "title": "Basic Data Structure for Population Pharmacokinetic (popPK) Analysis", "type": "Implementation Guide"}, "parentVariableSet": {"href": "/mdr/adam/adam-poppk-1-0/datastructures/ADPPK/varsets/PopulationPharmacokineticsAnalysis", "title": "ADPPK Population Pharmacokinetics Analysis Variables", "type": "Variable Set"}, "self": {"href": "/mdr/adam/adam-poppk-1-0/datastructures/ADPPK/variables/BLQFN", "title": "Below Lower Limit of Quant Flag (N)", "type": "Analysis Variable"}}, "core": "Perm", "description": "0=N, 1=Y. The numeric versions of the primary/character variables can be assigned from its corresponding character pair variable.", "label": "Below Lower Limit of Quant Flag (N)", "name": "BLQFN", "ordinal": "37", "simpleDatatype": "Num", "valueList": ["0", "1"]}, {"_links": {"parentDatastructure": {"href": "/mdr/adam/adam-poppk-1-0/datastructures/ADPPK", "title": "Basic Data Structure Population Pharmacokinetic Analysis", "type": "Data Structure"}, "parentProduct": {"href": "/mdr/adam/adam-poppk-1-0", "title": "Basic Data Structure for Population Pharmacokinetic (popPK) Analysis", "type": "Implementation Guide"}, "parentVariableSet": {"href": "/mdr/adam/adam-poppk-1-0/datastructures/ADPPK/varsets/PopulationPharmacokineticsAnalysis", "title": "ADPPK Population Pharmacokinetics Analysis Variables", "type": "Variable Set"}, "self": {"href": "/mdr/adam/adam-poppk-1-0/datastructures/ADPPK/variables/ALQFL", "title": "Above the Upper Limit of Quant Flag", "type": "Analysis Variable"}}, "core": "Cond", "description": "N, Y. Set to Y when the analysis value is above the limit of quantification.", "label": "Above the Upper Limit of Quant Flag", "name": "ALQFL", "ordinal": "38", "simpleDatatype": "Char", "valueList": ["N", "Y"]}, {"_links": {"parentDatastructure": {"href": "/mdr/adam/adam-poppk-1-0/datastructures/ADPPK", "title": "Basic Data Structure Population Pharmacokinetic Analysis", "type": "Data Structure"}, "parentProduct": {"href": "/mdr/adam/adam-poppk-1-0", "title": "Basic Data Structure for Population Pharmacokinetic (popPK) Analysis", "type": "Implementation Guide"}, "parentVariableSet": {"href": "/mdr/adam/adam-poppk-1-0/datastructures/ADPPK/varsets/PopulationPharmacokineticsAnalysis", "title": "ADPPK Population Pharmacokinetics Analysis Variables", "type": "Variable Set"}, "self": {"href": "/mdr/adam/adam-poppk-1-0/datastructures/ADPPK/variables/ALQFN", "title": "Above the Upper Limit of Quant Flag (N)", "type": "Analysis Variable"}}, "core": "Perm", "description": "0=N, 1=Y. The numeric versions of the primary/character variables can be assigned from its corresponding character pair variable.", "label": "Above the Upper Limit of Quant Flag (N)", "name": "ALQFN", "ordinal": "39", "simpleDatatype": "Num", "valueList": ["0", "1"]}, {"_links": {"parentDatastructure": {"href": "/mdr/adam/adam-poppk-1-0/datastructures/ADPPK", "title": "Basic Data Structure Population Pharmacokinetic Analysis", "type": "Data Structure"}, "parentProduct": {"href": "/mdr/adam/adam-poppk-1-0", "title": "Basic Data Structure for Population Pharmacokinetic (popPK) Analysis", "type": "Implementation Guide"}, "parentVariableSet": {"href": "/mdr/adam/adam-poppk-1-0/datastructures/ADPPK/varsets/PopulationPharmacokineticsAnalysis", "title": "ADPPK Population Pharmacokinetics Analysis Variables", "type": "Variable Set"}, "self": {"href": "/mdr/adam/adam-poppk-1-0/datastructures/ADPPK/variables/AMT", "title": "Actual Amount of Dose Received (unit)", "type": "Analysis Variable"}}, "core": "Req", "description": "Only populated on dosing records", "label": "Actual Amount of Dose Received (unit)", "name": "AMT", "ordinal": "40", "simpleDatatype": "Num"}, {"_links": {"parentDatastructure": {"href": "/mdr/adam/adam-poppk-1-0/datastructures/ADPPK", "title": "Basic Data Structure Population Pharmacokinetic Analysis", "type": "Data Structure"}, "parentProduct": {"href": "/mdr/adam/adam-poppk-1-0", "title": "Basic Data Structure for Population Pharmacokinetic (popPK) Analysis", "type": "Implementation Guide"}, "parentVariableSet": {"href": "/mdr/adam/adam-poppk-1-0/datastructures/ADPPK/varsets/PopulationPharmacokineticsAnalysis", "title": "ADPPK Population Pharmacokinetics Analysis Variables", "type": "Variable Set"}, "self": {"href": "/mdr/adam/adam-poppk-1-0/datastructures/ADPPK/variables/DOSEA", "title": "Actual Treatment Dose (unit)", "type": "Analysis Variable"}}, "core": "Perm", "description": "DOSEA represents the actual treatment dosage associated with the record. Could be amount (mg) or weight based dose (mg/kg). Units of AMT and DOSEA can be same or different. \\n This is the actual numeric amount of the dose used for the population analysis and may differ from the EX.EXDOSE. It can be derived from the EX.EXDOSE or based on related dose. Populated on all individual records as carry-forward.", "label": "Actual Treatment Dose (unit)", "name": "DOSEA", "ordinal": "41", "simpleDatatype": "Num"}, {"_links": {"parentDatastructure": {"href": "/mdr/adam/adam-poppk-1-0/datastructures/ADPPK", "title": "Basic Data Structure Population Pharmacokinetic Analysis", "type": "Data Structure"}, "parentProduct": {"href": "/mdr/adam/adam-poppk-1-0", "title": "Basic Data Structure for Population Pharmacokinetic (popPK) Analysis", "type": "Implementation Guide"}, "parentVariableSet": {"href": "/mdr/adam/adam-poppk-1-0/datastructures/ADPPK/varsets/PopulationPharmacokineticsAnalysis", "title": "ADPPK Population Pharmacokinetics Analysis Variables", "type": "Variable Set"}, "self": {"href": "/mdr/adam/adam-poppk-1-0/datastructures/ADPPK/variables/DOSETDD", "title": "Total Daily Amt of Dose Received (unit)", "type": "Analysis Variable"}}, "core": "Perm", "description": "Used mostly for BID dosing schemes", "label": "Total Daily Amt of Dose Received (unit)", "name": "DOSETDD", "ordinal": "42", "simpleDatatype": "Num"}, {"_links": {"parentDatastructure": {"href": "/mdr/adam/adam-poppk-1-0/datastructures/ADPPK", "title": "Basic Data Structure Population Pharmacokinetic Analysis", "type": "Data Structure"}, "parentProduct": {"href": "/mdr/adam/adam-poppk-1-0", "title": "Basic Data Structure for Population Pharmacokinetic (popPK) Analysis", "type": "Implementation Guide"}, "parentVariableSet": {"href": "/mdr/adam/adam-poppk-1-0/datastructures/ADPPK/varsets/PopulationPharmacokineticsAnalysis", "title": "ADPPK Population Pharmacokinetics Analysis Variables", "type": "Variable Set"}, "self": {"href": "/mdr/adam/adam-poppk-1-0/datastructures/ADPPK/variables/DOSEDUR", "title": "Duration Of Dose Administration (unit)", "type": "Analysis Variable"}}, "core": "Perm", "description": "Duration associated with infusion (IV, SC); distinct from TRTDURD, TRTDURM, and TRTDURY, which reference the duration of the entire study rather than the duration of a single treatment event. \"EX dataset\". \\n Derived from EXENDTC - EXSTDTC \\n The label should contain the unit of time. Usually same unit as time variables.", "label": "Duration Of Dose Administration (unit)", "name": "DOSEDUR", "ordinal": "43", "simpleDatatype": "Num"}, {"_links": {"parentDatastructure": {"href": "/mdr/adam/adam-poppk-1-0/datastructures/ADPPK", "title": "Basic Data Structure Population Pharmacokinetic Analysis", "type": "Data Structure"}, "parentProduct": {"href": "/mdr/adam/adam-poppk-1-0", "title": "Basic Data Structure for Population Pharmacokinetic (popPK) Analysis", "type": "Implementation Guide"}, "parentVariableSet": {"href": "/mdr/adam/adam-poppk-1-0/datastructures/ADPPK/varsets/PopulationPharmacokineticsAnalysis", "title": "ADPPK Population Pharmacokinetics Analysis Variables", "type": "Variable Set"}, "self": {"href": "/mdr/adam/adam-poppk-1-0/datastructures/ADPPK/variables/RATE", "title": "Infusion Rate (unit)", "type": "Analysis Variable"}}, "core": "Perm", "description": "Calculated as the amount of dose received divided by the dose duration. Certain modeling methods may require that RATE is set to a specific value. \\n The label should contain the unit (e.g., mg/hr).", "label": "Infusion Rate (unit)", "name": "RATE", "ordinal": "44", "simpleDatatype": "Num"}, {"_links": {"parentDatastructure": {"href": "/mdr/adam/adam-poppk-1-0/datastructures/ADPPK", "title": "Basic Data Structure Population Pharmacokinetic Analysis", "type": "Data Structure"}, "parentProduct": {"href": "/mdr/adam/adam-poppk-1-0", "title": "Basic Data Structure for Population Pharmacokinetic (popPK) Analysis", "type": "Implementation Guide"}, "parentVariableSet": {"href": "/mdr/adam/adam-poppk-1-0/datastructures/ADPPK/varsets/PopulationPharmacokineticsAnalysis", "title": "ADPPK Population Pharmacokinetics Analysis Variables", "type": "Variable Set"}, "self": {"href": "/mdr/adam/adam-poppk-1-0/datastructures/ADPPK/variables/II", "title": "Dosing Interval (unit)", "type": "Analysis Variable"}}, "core": "Perm", "description": "Describes the dosing frequency for multiple doses (e.g., 24 for QD, 12 for BID, if time unit is hours).", "label": "Dosing Interval (unit)", "name": "II", "ordinal": "45", "simpleDatatype": "Num"}, {"_links": {"parentDatastructure": {"href": "/mdr/adam/adam-poppk-1-0/datastructures/ADPPK", "title": "Basic Data Structure Population Pharmacokinetic Analysis", "type": "Data Structure"}, "parentProduct": {"href": "/mdr/adam/adam-poppk-1-0", "title": "Basic Data Structure for Population Pharmacokinetic (popPK) Analysis", "type": "Implementation Guide"}, "parentVariableSet": {"href": "/mdr/adam/adam-poppk-1-0/datastructures/ADPPK/varsets/PopulationPharmacokineticsAnalysis", "title": "ADPPK Population Pharmacokinetics Analysis Variables", "type": "Variable Set"}, "self": {"href": "/mdr/adam/adam-poppk-1-0/datastructures/ADPPK/variables/ADDL", "title": "Number Of Additional Doses", "type": "Analysis Variable"}}, "core": "Perm", "description": "Number of additional doses like the current dosing event until the next captured dose (e.g., if the value is 1 then 1 additional dose; if value is 2 then 2 additional doses). It is commonly used for long-lasting studies with frequent dosing in order to not have the dataset extremely large.", "label": "Number Of Additional Doses", "name": "ADDL", "ordinal": "46", "simpleDatatype": "Num"}, {"_links": {"parentDatastructure": {"href": "/mdr/adam/adam-poppk-1-0/datastructures/ADPPK", "title": "Basic Data Structure Population Pharmacokinetic Analysis", "type": "Data Structure"}, "parentProduct": {"href": "/mdr/adam/adam-poppk-1-0", "title": "Basic Data Structure for Population Pharmacokinetic (popPK) Analysis", "type": "Implementation Guide"}, "parentVariableSet": {"href": "/mdr/adam/adam-poppk-1-0/datastructures/ADPPK/varsets/PopulationPharmacokineticsAnalysis", "title": "ADPPK Population Pharmacokinetics Analysis Variables", "type": "Variable Set"}, "self": {"href": "/mdr/adam/adam-poppk-1-0/datastructures/ADPPK/variables/SS", "title": "Steady State", "type": "Analysis Variable"}}, "core": "Perm", "description": "A steady-state dose is a dose that is presumed to be the last of a series of implied doses, each exactly like the dose in question, given at a regular interval specified by the II data item and leading to steady state by the time the steady-state dose is given.", "label": "Steady State", "name": "SS", "ordinal": "47", "simpleDatatype": "Num"}, {"_links": {"codelist": [{"href": "/mdr/root/ct/sdtmct/codelists/C66726", "title": "Version-agnostic anchor resource for codelist C66726", "type": "Root Value Domain"}], "parentDatastructure": {"href": "/mdr/adam/adam-poppk-1-0/datastructures/ADPPK", "title": "Basic Data Structure Population Pharmacokinetic Analysis", "type": "Data Structure"}, "parentProduct": {"href": "/mdr/adam/adam-poppk-1-0", "title": "Basic Data Structure for Population Pharmacokinetic (popPK) Analysis", "type": "Implementation Guide"}, "parentVariableSet": {"href": "/mdr/adam/adam-poppk-1-0/datastructures/ADPPK/varsets/PopulationPharmacokineticsAnalysis", "title": "ADPPK Population Pharmacokinetics Analysis Variables", "type": "Variable Set"}, "self": {"href": "/mdr/adam/adam-poppk-1-0/datastructures/ADPPK/variables/FORM", "title": "Drug Formulation", "type": "Analysis Variable"}}, "codelistSubmissionValues": ["FRM"], "core": "Perm", "description": "Type of formulation (e.g., tablet, capsule, aerosol); EX.EXDOSFRM or protocol", "label": "Drug Formulation", "name": "FORM", "ordinal": "48", "simpleDatatype": "Char"}, {"_links": {"parentDatastructure": {"href": "/mdr/adam/adam-poppk-1-0/datastructures/ADPPK", "title": "Basic Data Structure Population Pharmacokinetic Analysis", "type": "Data Structure"}, "parentProduct": {"href": "/mdr/adam/adam-poppk-1-0", "title": "Basic Data Structure for Population Pharmacokinetic (popPK) Analysis", "type": "Implementation Guide"}, "parentVariableSet": {"href": "/mdr/adam/adam-poppk-1-0/datastructures/ADPPK/varsets/PopulationPharmacokineticsAnalysis", "title": "ADPPK Population Pharmacokinetics Analysis Variables", "type": "Variable Set"}, "self": {"href": "/mdr/adam/adam-poppk-1-0/datastructures/ADPPK/variables/FORMN", "title": "Drug Formulation (N)", "type": "Analysis Variable"}}, "core": "Perm", "description": "Unique numerical representation of FORM. The numeric versions of the primary/character variables can be assigned from the corresponding character pair variable.", "label": "Drug Formulation (N)", "name": "FORMN", "ordinal": "49", "simpleDatatype": "Num"}, {"_links": {"codelist": [{"href": "/mdr/root/ct/sdtmct/codelists/C66729", "title": "Version-agnostic anchor resource for codelist C66729", "type": "Root Value Domain"}], "parentDatastructure": {"href": "/mdr/adam/adam-poppk-1-0/datastructures/ADPPK", "title": "Basic Data Structure Population Pharmacokinetic Analysis", "type": "Data Structure"}, "parentProduct": {"href": "/mdr/adam/adam-poppk-1-0", "title": "Basic Data Structure for Population Pharmacokinetic (popPK) Analysis", "type": "Implementation Guide"}, "parentVariableSet": {"href": "/mdr/adam/adam-poppk-1-0/datastructures/ADPPK/varsets/PopulationPharmacokineticsAnalysis", "title": "ADPPK Population Pharmacokinetics Analysis Variables", "type": "Variable Set"}, "self": {"href": "/mdr/adam/adam-poppk-1-0/datastructures/ADPPK/variables/ROUTE", "title": "Route of Administration", "type": "Analysis Variable"}}, "codelistSubmissionValues": ["ROUTE"], "core": "Perm", "description": "Route of treatment delivery. May be derived from EX.EXROUTE.", "label": "Route of Administration", "name": "ROUTE", "ordinal": "50", "simpleDatatype": "Char"}, {"_links": {"parentDatastructure": {"href": "/mdr/adam/adam-poppk-1-0/datastructures/ADPPK", "title": "Basic Data Structure Population Pharmacokinetic Analysis", "type": "Data Structure"}, "parentProduct": {"href": "/mdr/adam/adam-poppk-1-0", "title": "Basic Data Structure for Population Pharmacokinetic (popPK) Analysis", "type": "Implementation Guide"}, "parentVariableSet": {"href": "/mdr/adam/adam-poppk-1-0/datastructures/ADPPK/varsets/PopulationPharmacokineticsAnalysis", "title": "ADPPK Population Pharmacokinetics Analysis Variables", "type": "Variable Set"}, "self": {"href": "/mdr/adam/adam-poppk-1-0/datastructures/ADPPK/variables/ROUTEN", "title": "Route of Administration (N)", "type": "Analysis Variable"}}, "core": "Perm", "description": "Derived from ROUTE as one-on-one unique match. The numeric versions of the primary/character variables can be assigned from its corresponding character pair variable.", "label": "Route of Administration (N)", "name": "ROUTEN", "ordinal": "51", "simpleDatatype": "Num"}, {"_links": {"parentDatastructure": {"href": "/mdr/adam/adam-poppk-1-0/datastructures/ADPPK", "title": "Basic Data Structure Population Pharmacokinetic Analysis", "type": "Data Structure"}, "parentProduct": {"href": "/mdr/adam/adam-poppk-1-0", "title": "Basic Data Structure for Population Pharmacokinetic (popPK) Analysis", "type": "Implementation Guide"}, "parentVariableSet": {"href": "/mdr/adam/adam-poppk-1-0/datastructures/ADPPK/varsets/PopulationPharmacokineticsAnalysis", "title": "ADPPK Population Pharmacokinetics Analysis Variables", "type": "Variable Set"}, "self": {"href": "/mdr/adam/adam-poppk-1-0/datastructures/ADPPK/variables/ACYCLE", "title": "Analysis Cycle", "type": "Analysis Variable"}}, "core": "Perm", "description": "Record-level identifier that reflects cycle and may be of particular importance for studies that examine concentrations in cancer patients from AVISIT or protocol.", "label": "Analysis Cycle", "name": "ACYCLE", "ordinal": "52", "simpleDatatype": "Num"}, {"_links": {"parentDatastructure": {"href": "/mdr/adam/adam-poppk-1-0/datastructures/ADPPK", "title": "Basic Data Structure Population Pharmacokinetic Analysis", "type": "Data Structure"}, "parentProduct": {"href": "/mdr/adam/adam-poppk-1-0", "title": "Basic Data Structure for Population Pharmacokinetic (popPK) Analysis", "type": "Implementation Guide"}, "parentVariableSet": {"href": "/mdr/adam/adam-poppk-1-0/datastructures/ADPPK/varsets/PopulationPharmacokineticsAnalysis", "title": "ADPPK Population Pharmacokinetics Analysis Variables", "type": "Variable Set"}, "self": {"href": "/mdr/adam/adam-poppk-1-0/datastructures/ADPPK/variables/ACYCLEC", "title": "Analysis Cycle (C)", "type": "Analysis Variable"}}, "core": "Perm", "description": "Derived from ACYCLE as one-on-one unique match. The character versions of the primary/character variables can be assigned from its corresponding numeric pair variable.", "label": "Analysis Cycle (C)", "name": "ACYCLEC", "ordinal": "53", "simpleDatatype": "Char"}, {"_links": {"parentDatastructure": {"href": "/mdr/adam/adam-poppk-1-0/datastructures/ADPPK", "title": "Basic Data Structure Population Pharmacokinetic Analysis", "type": "Data Structure"}, "parentProduct": {"href": "/mdr/adam/adam-poppk-1-0", "title": "Basic Data Structure for Population Pharmacokinetic (popPK) Analysis", "type": "Implementation Guide"}, "parentVariableSet": {"href": "/mdr/adam/adam-poppk-1-0/datastructures/ADPPK/varsets/PopulationPharmacokineticsAnalysis", "title": "ADPPK Population Pharmacokinetics Analysis Variables", "type": "Variable Set"}, "self": {"href": "/mdr/adam/adam-poppk-1-0/datastructures/ADPPK/variables/COHORT", "title": "Cohort Subject Enrolled Into", "type": "Analysis Variable"}}, "core": "Perm", "description": "Subject-level variable. Could be some sort of subpopulation.", "label": "Cohort Subject Enrolled Into", "name": "COHORT", "ordinal": "54", "simpleDatatype": "Num"}, {"_links": {"parentDatastructure": {"href": "/mdr/adam/adam-poppk-1-0/datastructures/ADPPK", "title": "Basic Data Structure Population Pharmacokinetic Analysis", "type": "Data Structure"}, "parentProduct": {"href": "/mdr/adam/adam-poppk-1-0", "title": "Basic Data Structure for Population Pharmacokinetic (popPK) Analysis", "type": "Implementation Guide"}, "parentVariableSet": {"href": "/mdr/adam/adam-poppk-1-0/datastructures/ADPPK/varsets/PopulationPharmacokineticsAnalysis", "title": "ADPPK Population Pharmacokinetics Analysis Variables", "type": "Variable Set"}, "self": {"href": "/mdr/adam/adam-poppk-1-0/datastructures/ADPPK/variables/COHORTC", "title": "Cohort Subject Enrolled into (C)", "type": "Analysis Variable"}}, "core": "Perm", "description": "Character representation of the COHORT variable. There must be a one-to-one mapping to COHORT. The character versions of the primary/character variables can be assigned from its corresponding numeric pair variable.", "label": "Cohort Subject Enrolled into (C)", "name": "COHORTC", "ordinal": "55", "simpleDatatype": "Char"}, {"_links": {"parentDatastructure": {"href": "/mdr/adam/adam-poppk-1-0/datastructures/ADPPK", "title": "Basic Data Structure Population Pharmacokinetic Analysis", "type": "Data Structure"}, "parentProduct": {"href": "/mdr/adam/adam-poppk-1-0", "title": "Basic Data Structure for Population Pharmacokinetic (popPK) Analysis", "type": "Implementation Guide"}, "parentVariableSet": {"href": "/mdr/adam/adam-poppk-1-0/datastructures/ADPPK/varsets/PopulationPharmacokineticsAnalysis", "title": "ADPPK Population Pharmacokinetics Analysis Variables", "type": "Variable Set"}, "self": {"href": "/mdr/adam/adam-poppk-1-0/datastructures/ADPPK/variables/UDTC", "title": "Date and Time of the Event", "type": "Analysis Variable"}}, "core": "Perm", "describedValueDomain": "ISO 8601", "description": "Datetime associated with event ID represented in ISO 8601 character format. U is a replacement for the dataset name from where the value came from (e.g., UDTC is equal to PCDTC for PC records).", "label": "Date and Time of the Event", "name": "UDTC", "ordinal": "56", "simpleDatatype": "Char"}], "label": "ADPPK Population Pharmacokinetics Analysis Variables", "name": "Population Pharmacokinetics Analysis", "ordinal": "1"}, {"_links": {"parentDatastructure": {"href": "/mdr/adam/adam-poppk-1-0/datastructures/ADPPK", "title": "Basic Data Structure Population Pharmacokinetic Analysis", "type": "Data Structure"}, "parentProduct": {"href": "/mdr/adam/adam-poppk-1-0", "title": "Basic Data Structure for Population Pharmacokinetic (popPK) Analysis", "type": "Implementation Guide"}, "self": {"href": "/mdr/adam/adam-poppk-1-0/datastructures/ADPPK/varsets/PopulationPharmacokineticsAnalysisCovariates", "title": "ADPPK Population Pharmacokinetics Analysis Variables - Covariates", "type": "Variable Set"}}, "analysisVariables": [{"_links": {"parentDatastructure": {"href": "/mdr/adam/adam-poppk-1-0/datastructures/ADPPK", "title": "Basic Data Structure Population Pharmacokinetic Analysis", "type": "Data Structure"}, "parentProduct": {"href": "/mdr/adam/adam-poppk-1-0", "title": "Basic Data Structure for Population Pharmacokinetic (popPK) Analysis", "type": "Implementation Guide"}, "parentVariableSet": {"href": "/mdr/adam/adam-poppk-1-0/datastructures/ADPPK/varsets/PopulationPharmacokineticsAnalysisCovariates", "title": "ADPPK Population Pharmacokinetics Analysis Variables - Covariates", "type": "Variable Set"}, "self": {"href": "/mdr/adam/adam-poppk-1-0/datastructures/ADPPK/variables/WT", "title": "Body Weight (unit)", "type": "Analysis Variable"}}, "core": "Perm", "description": "Variable may be derived from VS.VSTEST and VS.VSSTRESN but may also be pulled in from other datasets. Weight is associated with sampling time. SDTM.VS or a Vital Signs analysis dataset.", "label": "Body Weight (unit)", "name": "WT", "ordinal": "1", "simpleDatatype": "Num"}, {"_links": {"parentDatastructure": {"href": "/mdr/adam/adam-poppk-1-0/datastructures/ADPPK", "title": "Basic Data Structure Population Pharmacokinetic Analysis", "type": "Data Structure"}, "parentProduct": {"href": "/mdr/adam/adam-poppk-1-0", "title": "Basic Data Structure for Population Pharmacokinetic (popPK) Analysis", "type": "Implementation Guide"}, "parentVariableSet": {"href": "/mdr/adam/adam-poppk-1-0/datastructures/ADPPK/varsets/PopulationPharmacokineticsAnalysisCovariates", "title": "ADPPK Population Pharmacokinetics Analysis Variables - Covariates", "type": "Variable Set"}, "self": {"href": "/mdr/adam/adam-poppk-1-0/datastructures/ADPPK/variables/WTBL", "title": "Baseline Body Weight (unit)", "type": "Analysis Variable"}}, "core": "Perm", "description": "Variable may be derived from VS.VSTEST and VS.VSSTRESN but may also be pulled in from other datasets. Weight is associated with the last assessment prior to dosing. Use flags for baseline. SDTM.VS or a Vital Signs analysis dataset. If the definition of this variable in the modeling plan is the same as in the SAP then use the variable in ADSL.", "label": "Baseline Body Weight (unit)", "name": "WTBL", "ordinal": "2", "simpleDatatype": "Num"}, {"_links": {"parentDatastructure": {"href": "/mdr/adam/adam-poppk-1-0/datastructures/ADPPK", "title": "Basic Data Structure Population Pharmacokinetic Analysis", "type": "Data Structure"}, "parentProduct": {"href": "/mdr/adam/adam-poppk-1-0", "title": "Basic Data Structure for Population Pharmacokinetic (popPK) Analysis", "type": "Implementation Guide"}, "parentVariableSet": {"href": "/mdr/adam/adam-poppk-1-0/datastructures/ADPPK/varsets/PopulationPharmacokineticsAnalysisCovariates", "title": "ADPPK Population Pharmacokinetics Analysis Variables - Covariates", "type": "Variable Set"}, "self": {"href": "/mdr/adam/adam-poppk-1-0/datastructures/ADPPK/variables/HTBL", "title": "Baseline Body Height (unit)", "type": "Analysis Variable"}}, "core": "Perm", "description": "Variable may be derived from baseline VS.VSTEST and VS.VSSTRESN but may also be pulled in from other datasets. SDTM.VS or a Vital Signs analysis dataset. If the definition of this variable in the modeling plan is the same as in the statistical analysis plan (SAP), then use the variable in ADSL.", "label": "Baseline Body Height (unit)", "name": "HTBL", "ordinal": "3", "simpleDatatype": "Num"}, {"_links": {"parentDatastructure": {"href": "/mdr/adam/adam-poppk-1-0/datastructures/ADPPK", "title": "Basic Data Structure Population Pharmacokinetic Analysis", "type": "Data Structure"}, "parentProduct": {"href": "/mdr/adam/adam-poppk-1-0", "title": "Basic Data Structure for Population Pharmacokinetic (popPK) Analysis", "type": "Implementation Guide"}, "parentVariableSet": {"href": "/mdr/adam/adam-poppk-1-0/datastructures/ADPPK/varsets/PopulationPharmacokineticsAnalysisCovariates", "title": "ADPPK Population Pharmacokinetics Analysis Variables - Covariates", "type": "Variable Set"}, "self": {"href": "/mdr/adam/adam-poppk-1-0/datastructures/ADPPK/variables/BMIBL", "title": "Baseline Body Mass Index (unit)", "type": "Analysis Variable"}}, "core": "Perm", "description": "Variable may be derived from baseline VS.VSTEST and VS.VSSTRESN but may also be pulled in from other datasets (SDTM.VS or a Vital Signs analysis dataset) or derived. ADSL.BMIBL for baseline and VS.BMI for time-varying or derived. If the definition of this variable in the modeling plan is the same as in the SAP then use the variable in ADSL.", "label": "Baseline Body Mass Index (unit)", "name": "BMIBL", "ordinal": "4", "simpleDatatype": "Num"}, {"_links": {"parentDatastructure": {"href": "/mdr/adam/adam-poppk-1-0/datastructures/ADPPK", "title": "Basic Data Structure Population Pharmacokinetic Analysis", "type": "Data Structure"}, "parentProduct": {"href": "/mdr/adam/adam-poppk-1-0", "title": "Basic Data Structure for Population Pharmacokinetic (popPK) Analysis", "type": "Implementation Guide"}, "parentVariableSet": {"href": "/mdr/adam/adam-poppk-1-0/datastructures/ADPPK/varsets/PopulationPharmacokineticsAnalysisCovariates", "title": "ADPPK Population Pharmacokinetics Analysis Variables - Covariates", "type": "Variable Set"}, "self": {"href": "/mdr/adam/adam-poppk-1-0/datastructures/ADPPK/variables/BSABL", "title": "Body Surface Area at Baseline (unit)", "type": "Analysis Variable"}}, "core": "Perm", "description": "Variable may be derived from baseline VS.VSTEST and VS.VSSTRESN but may also be pulled in from other datasets (SDTM.VS or a Vital Signs analysis dataset) or derived. ADSL.BSABL for baseline and VS.BSA for time-varying or derived. If the definition of this variable in the modeling plan is the same as in the SAP then use the variable in ADSL.", "label": "Body Surface Area at Baseline (unit)", "name": "BSABL", "ordinal": "5", "simpleDatatype": "Num"}, {"_links": {"parentDatastructure": {"href": "/mdr/adam/adam-poppk-1-0/datastructures/ADPPK", "title": "Basic Data Structure Population Pharmacokinetic Analysis", "type": "Data Structure"}, "parentProduct": {"href": "/mdr/adam/adam-poppk-1-0", "title": "Basic Data Structure for Population Pharmacokinetic (popPK) Analysis", "type": "Implementation Guide"}, "parentVariableSet": {"href": "/mdr/adam/adam-poppk-1-0/datastructures/ADPPK/varsets/PopulationPharmacokineticsAnalysisCovariates", "title": "ADPPK Population Pharmacokinetics Analysis Variables - Covariates", "type": "Variable Set"}, "self": {"href": "/mdr/adam/adam-poppk-1-0/datastructures/ADPPK/variables/AGE", "title": "Age", "type": "Analysis Variable"}}, "core": "Perm", "description": "DM.AGE or ADSL.AGE. If analysis needs require a derived age that does not match ADSL.AGE, then AAGE (Analysis Age) must be added.", "label": "Age", "name": "AGE", "ordinal": "6", "simpleDatatype": "Num"}, {"_links": {"parentDatastructure": {"href": "/mdr/adam/adam-poppk-1-0/datastructures/ADPPK", "title": "Basic Data Structure Population Pharmacokinetic Analysis", "type": "Data Structure"}, "parentProduct": {"href": "/mdr/adam/adam-poppk-1-0", "title": "Basic Data Structure for Population Pharmacokinetic (popPK) Analysis", "type": "Implementation Guide"}, "parentVariableSet": {"href": "/mdr/adam/adam-poppk-1-0/datastructures/ADPPK/varsets/PopulationPharmacokineticsAnalysisCovariates", "title": "ADPPK Population Pharmacokinetics Analysis Variables - Covariates", "type": "Variable Set"}, "self": {"href": "/mdr/adam/adam-poppk-1-0/datastructures/ADPPK/variables/AGETPT", "title": "Age at Analysis Timepoint (unit)", "type": "Analysis Variable"}}, "core": "Perm", "description": "Number of years between BRTHDT and ADT", "label": "Age at Analysis Timepoint (unit)", "name": "AGETPT", "ordinal": "7", "simpleDatatype": "Num"}, {"_links": {"codelist": [{"href": "/mdr/root/ct/sdtmct/codelists/C66731", "title": "Version-agnostic anchor resource for codelist C66731", "type": "Root Value Domain"}], "parentDatastructure": {"href": "/mdr/adam/adam-poppk-1-0/datastructures/ADPPK", "title": "Basic Data Structure Population Pharmacokinetic Analysis", "type": "Data Structure"}, "parentProduct": {"href": "/mdr/adam/adam-poppk-1-0", "title": "Basic Data Structure for Population Pharmacokinetic (popPK) Analysis", "type": "Implementation Guide"}, "parentVariableSet": {"href": "/mdr/adam/adam-poppk-1-0/datastructures/ADPPK/varsets/PopulationPharmacokineticsAnalysisCovariates", "title": "ADPPK Population Pharmacokinetics Analysis Variables - Covariates", "type": "Variable Set"}, "self": {"href": "/mdr/adam/adam-poppk-1-0/datastructures/ADPPK/variables/SEX", "title": "Sex", "type": "Analysis Variable"}}, "codelistSubmissionValues": ["SEX"], "core": "Req", "description": "The sex of the subject is a required variable in ADSL; must be identical to ADSL.SEX.", "label": "Sex", "name": "SEX", "ordinal": "8", "simpleDatatype": "Char"}, {"_links": {"parentDatastructure": {"href": "/mdr/adam/adam-poppk-1-0/datastructures/ADPPK", "title": "Basic Data Structure Population Pharmacokinetic Analysis", "type": "Data Structure"}, "parentProduct": {"href": "/mdr/adam/adam-poppk-1-0", "title": "Basic Data Structure for Population Pharmacokinetic (popPK) Analysis", "type": "Implementation Guide"}, "parentVariableSet": {"href": "/mdr/adam/adam-poppk-1-0/datastructures/ADPPK/varsets/PopulationPharmacokineticsAnalysisCovariates", "title": "ADPPK Population Pharmacokinetics Analysis Variables - Covariates", "type": "Variable Set"}, "self": {"href": "/mdr/adam/adam-poppk-1-0/datastructures/ADPPK/variables/SEXN", "title": "Sex (N)", "type": "Analysis Variable"}}, "core": "Perm", "description": "Numeric version of SEX. Can be extended to other values beyond 1 and 2. \\n Example values can be as follows: \\n 1=M, 2=F", "label": "Sex (N)", "name": "SEXN", "ordinal": "9", "simpleDatatype": "Num"}, {"_links": {"codelist": [{"href": "/mdr/root/ct/sdtmct/codelists/C74457", "title": "Version-agnostic anchor resource for codelist C74457", "type": "Root Value Domain"}], "parentDatastructure": {"href": "/mdr/adam/adam-poppk-1-0/datastructures/ADPPK", "title": "Basic Data Structure Population Pharmacokinetic Analysis", "type": "Data Structure"}, "parentProduct": {"href": "/mdr/adam/adam-poppk-1-0", "title": "Basic Data Structure for Population Pharmacokinetic (popPK) Analysis", "type": "Implementation Guide"}, "parentVariableSet": {"href": "/mdr/adam/adam-poppk-1-0/datastructures/ADPPK/varsets/PopulationPharmacokineticsAnalysisCovariates", "title": "ADPPK Population Pharmacokinetics Analysis Variables - Covariates", "type": "Variable Set"}, "self": {"href": "/mdr/adam/adam-poppk-1-0/datastructures/ADPPK/variables/RACE", "title": "Race", "type": "Analysis Variable"}}, "codelistSubmissionValues": ["RACE"], "core": "Req", "description": "The race of the subject is a required variable in ADSL; identical to ADSL.RACE. May categorize differently if analysis demands.", "label": "Race", "name": "RACE", "ordinal": "10", "simpleDatatype": "Char"}, {"_links": {"parentDatastructure": {"href": "/mdr/adam/adam-poppk-1-0/datastructures/ADPPK", "title": "Basic Data Structure Population Pharmacokinetic Analysis", "type": "Data Structure"}, "parentProduct": {"href": "/mdr/adam/adam-poppk-1-0", "title": "Basic Data Structure for Population Pharmacokinetic (popPK) Analysis", "type": "Implementation Guide"}, "parentVariableSet": {"href": "/mdr/adam/adam-poppk-1-0/datastructures/ADPPK/varsets/PopulationPharmacokineticsAnalysisCovariates", "title": "ADPPK Population Pharmacokinetics Analysis Variables - Covariates", "type": "Variable Set"}, "self": {"href": "/mdr/adam/adam-poppk-1-0/datastructures/ADPPK/variables/RACEN", "title": "Race (N)", "type": "Analysis Variable"}}, "core": "Perm", "description": "Numeric version of RACE, e.g., codes used as per the specification. \\n 1=American Indian or Alaska Native, 2=Asian, 3=Black/African American, 4=Native Hawaiian or Other Pacific Islander, 5=White \\n If races need to be categorized differently, then use variables ARACE and ARACEN.", "label": "Race (N)", "name": "RACEN", "ordinal": "11", "simpleDatatype": "Num"}, {"_links": {"parentDatastructure": {"href": "/mdr/adam/adam-poppk-1-0/datastructures/ADPPK", "title": "Basic Data Structure Population Pharmacokinetic Analysis", "type": "Data Structure"}, "parentProduct": {"href": "/mdr/adam/adam-poppk-1-0", "title": "Basic Data Structure for Population Pharmacokinetic (popPK) Analysis", "type": "Implementation Guide"}, "parentVariableSet": {"href": "/mdr/adam/adam-poppk-1-0/datastructures/ADPPK/varsets/PopulationPharmacokineticsAnalysisCovariates", "title": "ADPPK Population Pharmacokinetics Analysis Variables - Covariates", "type": "Variable Set"}, "self": {"href": "/mdr/adam/adam-poppk-1-0/datastructures/ADPPK/variables/ARACE", "title": "Analysis Race", "type": "Analysis Variable"}}, "core": "Perm", "description": "To be able to allow different definitions of race. For example, allowing to code American Indian/Alaska Native and Native Hawaiian/Other Pacific Islander are coded as \"Other\". This is analysis-specific and could vary based on analysis needs.", "label": "Analysis Race", "name": "ARACE", "ordinal": "12", "simpleDatatype": "Char"}, {"_links": {"parentDatastructure": {"href": "/mdr/adam/adam-poppk-1-0/datastructures/ADPPK", "title": "Basic Data Structure Population Pharmacokinetic Analysis", "type": "Data Structure"}, "parentProduct": {"href": "/mdr/adam/adam-poppk-1-0", "title": "Basic Data Structure for Population Pharmacokinetic (popPK) Analysis", "type": "Implementation Guide"}, "parentVariableSet": {"href": "/mdr/adam/adam-poppk-1-0/datastructures/ADPPK/varsets/PopulationPharmacokineticsAnalysisCovariates", "title": "ADPPK Population Pharmacokinetics Analysis Variables - Covariates", "type": "Variable Set"}, "self": {"href": "/mdr/adam/adam-poppk-1-0/datastructures/ADPPK/variables/ARACEN", "title": "Analysis Race (N)", "type": "Analysis Variable"}}, "core": "Perm", "description": "Numeric version of ARACE; for example: \\n 1=White, 2=Black/African American, 3=Asian, 4=Other, 5=Unknown (e.g., not reported). American Indian/Alaska Native and Native Hawaiian/Other Pacific Islander are coded as 4.", "label": "Analysis Race (N)", "name": "ARACEN", "ordinal": "13", "simpleDatatype": "Num"}, {"_links": {"parentDatastructure": {"href": "/mdr/adam/adam-poppk-1-0/datastructures/ADPPK", "title": "Basic Data Structure Population Pharmacokinetic Analysis", "type": "Data Structure"}, "parentProduct": {"href": "/mdr/adam/adam-poppk-1-0", "title": "Basic Data Structure for Population Pharmacokinetic (popPK) Analysis", "type": "Implementation Guide"}, "parentVariableSet": {"href": "/mdr/adam/adam-poppk-1-0/datastructures/ADPPK/varsets/PopulationPharmacokineticsAnalysisCovariates", "title": "ADPPK Population Pharmacokinetics Analysis Variables - Covariates", "type": "Variable Set"}, "self": {"href": "/mdr/adam/adam-poppk-1-0/datastructures/ADPPK/variables/AETHNIC", "title": "Analysis Ethnicity", "type": "Analysis Variable"}}, "core": "Perm", "description": "Ethnicity as needed for analysis. May be derived.", "label": "Analysis Ethnicity", "name": "AETHNIC", "ordinal": "14", "simpleDatatype": "Char"}, {"_links": {"parentDatastructure": {"href": "/mdr/adam/adam-poppk-1-0/datastructures/ADPPK", "title": "Basic Data Structure Population Pharmacokinetic Analysis", "type": "Data Structure"}, "parentProduct": {"href": "/mdr/adam/adam-poppk-1-0", "title": "Basic Data Structure for Population Pharmacokinetic (popPK) Analysis", "type": "Implementation Guide"}, "parentVariableSet": {"href": "/mdr/adam/adam-poppk-1-0/datastructures/ADPPK/varsets/PopulationPharmacokineticsAnalysisCovariates", "title": "ADPPK Population Pharmacokinetics Analysis Variables - Covariates", "type": "Variable Set"}, "self": {"href": "/mdr/adam/adam-poppk-1-0/datastructures/ADPPK/variables/AETHNICN", "title": "Analysis Ethnicity (N)", "type": "Analysis Variable"}}, "core": "Perm", "description": "Numeric version of AETHNIC.", "label": "Analysis Ethnicity (N)", "name": "AETHNICN", "ordinal": "15", "simpleDatatype": "Num"}, {"_links": {"parentDatastructure": {"href": "/mdr/adam/adam-poppk-1-0/datastructures/ADPPK", "title": "Basic Data Structure Population Pharmacokinetic Analysis", "type": "Data Structure"}, "parentProduct": {"href": "/mdr/adam/adam-poppk-1-0", "title": "Basic Data Structure for Population Pharmacokinetic (popPK) Analysis", "type": "Implementation Guide"}, "parentVariableSet": {"href": "/mdr/adam/adam-poppk-1-0/datastructures/ADPPK/varsets/PopulationPharmacokineticsAnalysisCovariates", "title": "ADPPK Population Pharmacokinetics Analysis Variables - Covariates", "type": "Variable Set"}, "self": {"href": "/mdr/adam/adam-poppk-1-0/datastructures/ADPPK/variables/REGIONy", "title": "Geographic Region y", "type": "Analysis Variable"}}, "core": "Perm", "description": "REGIONy is a permissible variable in ADSL.", "label": "Geographic Region y", "name": "REGIONy", "ordinal": "16", "simpleDatatype": "Char"}, {"_links": {"parentDatastructure": {"href": "/mdr/adam/adam-poppk-1-0/datastructures/ADPPK", "title": "Basic Data Structure Population Pharmacokinetic Analysis", "type": "Data Structure"}, "parentProduct": {"href": "/mdr/adam/adam-poppk-1-0", "title": "Basic Data Structure for Population Pharmacokinetic (popPK) Analysis", "type": "Implementation Guide"}, "parentVariableSet": {"href": "/mdr/adam/adam-poppk-1-0/datastructures/ADPPK/varsets/PopulationPharmacokineticsAnalysisCovariates", "title": "ADPPK Population Pharmacokinetics Analysis Variables - Covariates", "type": "Variable Set"}, "self": {"href": "/mdr/adam/adam-poppk-1-0/datastructures/ADPPK/variables/REGIONyN", "title": "Geographic Region y (N)", "type": "Analysis Variable"}}, "core": "Perm", "description": "Numeric version of REGIONy.", "label": "Geographic Region y (N)", "name": "REGIONyN", "ordinal": "17", "simpleDatatype": "Num"}, {"_links": {"parentDatastructure": {"href": "/mdr/adam/adam-poppk-1-0/datastructures/ADPPK", "title": "Basic Data Structure Population Pharmacokinetic Analysis", "type": "Data Structure"}, "parentProduct": {"href": "/mdr/adam/adam-poppk-1-0", "title": "Basic Data Structure for Population Pharmacokinetic (popPK) Analysis", "type": "Implementation Guide"}, "parentVariableSet": {"href": "/mdr/adam/adam-poppk-1-0/datastructures/ADPPK/varsets/PopulationPharmacokineticsAnalysisCovariates", "title": "ADPPK Population Pharmacokinetics Analysis Variables - Covariates", "type": "Variable Set"}, "self": {"href": "/mdr/adam/adam-poppk-1-0/datastructures/ADPPK/variables/COUNTRY", "title": "Country", "type": "Analysis Variable"}}, "core": "Perm", "description": "DM.COUNTRY or ADSL.COUNTRY", "label": "Country", "name": "COUNTRY", "ordinal": "18", "simpleDatatype": "Char"}, {"_links": {"parentDatastructure": {"href": "/mdr/adam/adam-poppk-1-0/datastructures/ADPPK", "title": "Basic Data Structure Population Pharmacokinetic Analysis", "type": "Data Structure"}, "parentProduct": {"href": "/mdr/adam/adam-poppk-1-0", "title": "Basic Data Structure for Population Pharmacokinetic (popPK) Analysis", "type": "Implementation Guide"}, "parentVariableSet": {"href": "/mdr/adam/adam-poppk-1-0/datastructures/ADPPK/varsets/PopulationPharmacokineticsAnalysisCovariates", "title": "ADPPK Population Pharmacokinetics Analysis Variables - Covariates", "type": "Variable Set"}, "self": {"href": "/mdr/adam/adam-poppk-1-0/datastructures/ADPPK/variables/COUNTRYL", "title": "Country Full Name", "type": "Analysis Variable"}}, "core": "Perm", "description": "COUNTRYL is a human-readable name of the DM.COUNTRY value.", "label": "Country Full Name", "name": "COUNTRYL", "ordinal": "19", "simpleDatatype": "Char"}, {"_links": {"parentDatastructure": {"href": "/mdr/adam/adam-poppk-1-0/datastructures/ADPPK", "title": "Basic Data Structure Population Pharmacokinetic Analysis", "type": "Data Structure"}, "parentProduct": {"href": "/mdr/adam/adam-poppk-1-0", "title": "Basic Data Structure for Population Pharmacokinetic (popPK) Analysis", "type": "Implementation Guide"}, "parentVariableSet": {"href": "/mdr/adam/adam-poppk-1-0/datastructures/ADPPK/varsets/PopulationPharmacokineticsAnalysisCovariates", "title": "ADPPK Population Pharmacokinetics Analysis Variables - Covariates", "type": "Variable Set"}, "self": {"href": "/mdr/adam/adam-poppk-1-0/datastructures/ADPPK/variables/COUNTRYN", "title": "Country (N)", "type": "Analysis Variable"}}, "core": "Perm", "description": "Numeric version of COUNTRY.", "label": "Country (N)", "name": "COUNTRYN", "ordinal": "20", "simpleDatatype": "Num"}, {"_links": {"parentDatastructure": {"href": "/mdr/adam/adam-poppk-1-0/datastructures/ADPPK", "title": "Basic Data Structure Population Pharmacokinetic Analysis", "type": "Data Structure"}, "parentProduct": {"href": "/mdr/adam/adam-poppk-1-0", "title": "Basic Data Structure for Population Pharmacokinetic (popPK) Analysis", "type": "Implementation Guide"}, "parentVariableSet": {"href": "/mdr/adam/adam-poppk-1-0/datastructures/ADPPK/varsets/PopulationPharmacokineticsAnalysisCovariates", "title": "ADPPK Population Pharmacokinetics Analysis Variables - Covariates", "type": "Variable Set"}, "self": {"href": "/mdr/adam/adam-poppk-1-0/datastructures/ADPPK/variables/CREATBL", "title": "Baseline Creatinine Serum (unit)", "type": "Analysis Variable"}}, "core": "Perm", "description": "Use the baseline lab value for creatinine serum per the algorithm defined in the SAP.", "label": "Baseline Creatinine Serum (unit)", "name": "CREATBL", "ordinal": "21", "simpleDatatype": "Num"}, {"_links": {"parentDatastructure": {"href": "/mdr/adam/adam-poppk-1-0/datastructures/ADPPK", "title": "Basic Data Structure Population Pharmacokinetic Analysis", "type": "Data Structure"}, "parentProduct": {"href": "/mdr/adam/adam-poppk-1-0", "title": "Basic Data Structure for Population Pharmacokinetic (popPK) Analysis", "type": "Implementation Guide"}, "parentVariableSet": {"href": "/mdr/adam/adam-poppk-1-0/datastructures/ADPPK/varsets/PopulationPharmacokineticsAnalysisCovariates", "title": "ADPPK Population Pharmacokinetics Analysis Variables - Covariates", "type": "Variable Set"}, "self": {"href": "/mdr/adam/adam-poppk-1-0/datastructures/ADPPK/variables/CRCLBL", "title": "Baseline Creatinine Clearance (unit)", "type": "Analysis Variable"}}, "core": "Perm", "description": "Use the baseline lab value for creatinine clearance per the algorithm defined in the SAP. A formula may be suggested if the value does not exist in the lab dataset.", "label": "Baseline Creatinine Clearance (unit)", "name": "CRCLBL", "ordinal": "22", "simpleDatatype": "Num"}, {"_links": {"parentDatastructure": {"href": "/mdr/adam/adam-poppk-1-0/datastructures/ADPPK", "title": "Basic Data Structure Population Pharmacokinetic Analysis", "type": "Data Structure"}, "parentProduct": {"href": "/mdr/adam/adam-poppk-1-0", "title": "Basic Data Structure for Population Pharmacokinetic (popPK) Analysis", "type": "Implementation Guide"}, "parentVariableSet": {"href": "/mdr/adam/adam-poppk-1-0/datastructures/ADPPK/varsets/PopulationPharmacokineticsAnalysisCovariates", "title": "ADPPK Population Pharmacokinetics Analysis Variables - Covariates", "type": "Variable Set"}, "self": {"href": "/mdr/adam/adam-poppk-1-0/datastructures/ADPPK/variables/EGFRBL", "title": "Baseline eGFR (unit)", "type": "Analysis Variable"}}, "core": "Perm", "description": "Use the baseline lab value for eGFR per the algorithm defined in the SAP. A formula may be suggested if the value does not exist in the lab dataset.", "label": "Baseline eGFR (unit)", "name": "EGFRBL", "ordinal": "23", "simpleDatatype": "Num"}, {"_links": {"parentDatastructure": {"href": "/mdr/adam/adam-poppk-1-0/datastructures/ADPPK", "title": "Basic Data Structure Population Pharmacokinetic Analysis", "type": "Data Structure"}, "parentProduct": {"href": "/mdr/adam/adam-poppk-1-0", "title": "Basic Data Structure for Population Pharmacokinetic (popPK) Analysis", "type": "Implementation Guide"}, "parentVariableSet": {"href": "/mdr/adam/adam-poppk-1-0/datastructures/ADPPK/varsets/PopulationPharmacokineticsAnalysisCovariates", "title": "ADPPK Population Pharmacokinetics Analysis Variables - Covariates", "type": "Variable Set"}, "self": {"href": "/mdr/adam/adam-poppk-1-0/datastructures/ADPPK/variables/TBILBL", "title": "Baseline Total Bilirubin (unit)", "type": "Analysis Variable"}}, "core": "Perm", "description": "Use the baseline lab value for total bilirubin per the algorithm defined in the SAP.", "label": "Baseline Total Bilirubin (unit)", "name": "TBILBL", "ordinal": "24", "simpleDatatype": "Num"}, {"_links": {"parentDatastructure": {"href": "/mdr/adam/adam-poppk-1-0/datastructures/ADPPK", "title": "Basic Data Structure Population Pharmacokinetic Analysis", "type": "Data Structure"}, "parentProduct": {"href": "/mdr/adam/adam-poppk-1-0", "title": "Basic Data Structure for Population Pharmacokinetic (popPK) Analysis", "type": "Implementation Guide"}, "parentVariableSet": {"href": "/mdr/adam/adam-poppk-1-0/datastructures/ADPPK/varsets/PopulationPharmacokineticsAnalysisCovariates", "title": "ADPPK Population Pharmacokinetics Analysis Variables - Covariates", "type": "Variable Set"}, "self": {"href": "/mdr/adam/adam-poppk-1-0/datastructures/ADPPK/variables/ASTBL", "title": "Baseline Aspartate transaminase (unit)", "type": "Analysis Variable"}}, "core": "Perm", "description": "Use the baseline lab value for aspartate transaminase per the algorithm defined in the SAP.", "label": "Baseline Aspartate transaminase (unit)", "name": "ASTBL", "ordinal": "25", "simpleDatatype": "Num"}, {"_links": {"parentDatastructure": {"href": "/mdr/adam/adam-poppk-1-0/datastructures/ADPPK", "title": "Basic Data Structure Population Pharmacokinetic Analysis", "type": "Data Structure"}, "parentProduct": {"href": "/mdr/adam/adam-poppk-1-0", "title": "Basic Data Structure for Population Pharmacokinetic (popPK) Analysis", "type": "Implementation Guide"}, "parentVariableSet": {"href": "/mdr/adam/adam-poppk-1-0/datastructures/ADPPK/varsets/PopulationPharmacokineticsAnalysisCovariates", "title": "ADPPK Population Pharmacokinetics Analysis Variables - Covariates", "type": "Variable Set"}, "self": {"href": "/mdr/adam/adam-poppk-1-0/datastructures/ADPPK/variables/ALTBL", "title": "Baseline Alanine transaminase (unit)", "type": "Analysis Variable"}}, "core": "Perm", "description": "Use the baseline lab value for alanine transaminase per the algorithm defined in the SAP.", "label": "Baseline Alanine transaminase (unit)", "name": "ALTBL", "ordinal": "26", "simpleDatatype": "Num"}], "label": "ADPPK Population Pharmacokinetics Analysis Variables - Covariates", "name": "Population Pharmacokinetics Analysis  - Covariates", "ordinal": "2"}], "class": "BASIC DATA STRUCTURE", "description": "Dataset designed to support PPK. Sourced from SDTM (e.g., PC, DM, EX, LB) and ADaM (e.g., ADSL and ADEX datasets).", "label": "Basic Data Structure Population Pharmacokinetic Analysis", "name": "ADPPK", "ordinal": "1", "subClass": "POPULATION PHARMACOKINETIC ANALYSIS"}], "description": "The purpose of this document is to present the ADaM Basic Data Structure (BDS) and required extensions for popPK. The ADaM Implementation Guide (ADaMIG) supports many of the variables needed for popPK analysis and provides general naming conventions that can be leveraged in the definition of other variables. The ADaM popPK Implementation Guide provides specific guidance for all common variables and may be viewed as the ADaM BDS model plus additional popPK variables.", "effectiveDate": "2023-10-06", "label": "Basic Data Structure for Population Pharmacokinetic (popPK) Analysis", "name": "ADaM popPK v1.0", "registrationStatus": "Final", "source": "ADaM Population Pharmacokinetic (popPK) Standards Development Team", "version": "1-0"}
