{
  "_links": {
    "self": {
      "href": "/mdr/ct/packages/glossaryct-2020-12-18",
      "title": "GLOSSARY Controlled Terminology Package 44 Effective 2020-12-18",
      "type": "Terminology"
    }
  },
  "codelists": [
    {
      "conceptId": "C67497",
      "definition": "The terminology of the Clinical Data Interchange Standards Consortium (CDISC) glossary.",
      "name": "CDISC Glossary",
      "preferredTerm": "CDISC Glossary Terminology",
      "submissionValue": "CDISC Glossary",
      "synonyms": [
        "CDISC Glossary"
      ],
      "terms": [
        {
          "conceptId": "C85826",
          "definition": "The primary objective(s) is the main question to be answered and drives any statistical planning for the trial (e.g., calculation of the sample size to provide the appropriate power for statistical testing). [ICH E6 6.3] See also objective, secondary objective.",
          "preferredTerm": "Trial Primary Objective",
          "submissionValue": "primary objective"
        }
      ]
    }
  ],
  "description": "CDISC Controlled Terminology for GLOSSARY is the set of CDISC-developed or CDISC-adopted standard expressions (values) used with data items within CDISC-defined GLOSSARY datasets.",
  "effectiveDate": "2020-12-18",
  "label": "GLOSSARY Controlled Terminology Package 44 Effective 2020-12-18",
  "name": "GLOSSARY CT 2020-12-18",
  "registrationStatus": "Final",
  "source": "GLOSSARY Controlled Terminology developed by the CDISC Terminology Team in collaboration with the National Cancer Institute's Enterprise Vocabulary Services (EVS)",
  "version": "2020-12-18"
}