{
  "_links": {
    "priorVersion": {
      "href": "/mdr/ct/packages/protocolct-2017-09-29",
      "title": "PROTOCOL Controlled Terminology Package 31 Effective 2017-09-29",
      "type": "Terminology"
    },
    "self": {
      "href": "/mdr/ct/packages/protocolct-2018-03-30",
      "title": "PROTOCOL Controlled Terminology Package 33 Effective 2018-03-30",
      "type": "Terminology"
    }
  },
  "codelists": [
    {
      "conceptId": "C139020",
      "definition": "A terminology value set relevant to the attributes of the clinical trial entity.",
      "name": "Clinical Trial Attribute Terminology",
      "preferredTerm": "CDISC Protocol Entities Clinical Trial Attribute Terminology",
      "submissionValue": "Clinical Trial Attribute Terminology",
      "synonyms": [
        "Clinical Trial Attribute Terminology"
      ],
      "terms": [
        {
          "conceptId": "C85826",
          "definition": "The principal purpose of the trial.",
          "preferredTerm": "Trial Primary Objective",
          "submissionValue": "Trial Primary Objective",
          "synonyms": [
            "Trial Primary Objective"
          ]
        }
      ]
    }
  ],
  "description": "CDISC Controlled Terminology for PROTOCOL is the set of CDISC-developed or CDISC-adopted standard expressions (values) used with data items within CDISC-defined PROTOCOL datasets.",
  "effectiveDate": "2018-03-30",
  "label": "PROTOCOL Controlled Terminology Package 33 Effective 2018-03-30",
  "name": "PROTOCOL CT 2018-03-30",
  "registrationStatus": "Final",
  "source": "PROTOCOL Controlled Terminology developed by the CDISC Terminology Team in collaboration with the National Cancer Institute's Enterprise Vocabulary Services (EVS)",
  "version": "2018-03-30"
}