{
  "_links": {
    "priorVersion": {
      "href": "/mdr/ct/packages/sdtmct-2017-06-30",
      "title": "SDTM Controlled Terminology Package 30 Effective 2017-06-30",
      "type": "Terminology"
    },
    "self": {
      "href": "/mdr/ct/packages/sdtmct-2017-09-29",
      "title": "SDTM Controlled Terminology Package 31 Effective 2017-09-29",
      "type": "Terminology"
    }
  },
  "codelists": [
    {
      "conceptId": "C66738",
      "definition": "The test code for an individual characteristic of a clinical trial, e.g. description of trial design, trial blinding schema, and primary objective of trial.",
      "extensible": "true",
      "name": "Trial Summary Parameter Test Code",
      "preferredTerm": "CDISC SDTM Trial Summary Parameter Short Name Terminology",
      "submissionValue": "TSPARMCD",
      "synonyms": [
        "Trial Summary Parameter Test Code"
      ],
      "terms": [
        {
          "conceptId": "C85826",
          "definition": "The principal purpose of the trial.",
          "preferredTerm": "Trial Primary Objective",
          "submissionValue": "OBJPRIM",
          "synonyms": [
            "Trial Primary Objective"
          ]
        }
      ]
    },
    {
      "conceptId": "C67152",
      "definition": "The test name for an individual characteristic of a clinical trial, e.g. description of trial design, trial blinding schema, and primary objective of trial.",
      "extensible": "true",
      "name": "Trial Summary Parameter Test Name",
      "preferredTerm": "CDISC SDTM Trial Summary Parameter Long Name Terminology",
      "submissionValue": "TSPARM",
      "synonyms": [
        "Trial Summary Parameter Test Name"
      ],
      "terms": [
        {
          "conceptId": "C85826",
          "definition": "The principal purpose of the trial.",
          "preferredTerm": "Trial Primary Objective",
          "submissionValue": "Trial Primary Objective",
          "synonyms": [
            "Trial Primary Objective"
          ]
        }
      ]
    }
  ],
  "description": "CDISC Controlled Terminology for SDTM is the set of CDISC-developed or CDISC-adopted standard expressions (values) used with data items within CDISC-defined SDTM datasets.",
  "effectiveDate": "2017-09-29",
  "label": "SDTM Controlled Terminology Package 31 Effective 2017-09-29",
  "name": "SDTM CT 2017-09-29",
  "registrationStatus": "Final",
  "source": "SDTM Controlled Terminology developed by the CDISC Terminology Team in collaboration with the National Cancer Institute's Enterprise Vocabulary Services (EVS)",
  "version": "2017-09-29"
}