{
  "name": "Test-Case 4 CT 2020-01-01",
  "label": "Test-Case 4 Controlled Terminology Package 1 Effective 2020-01-01",
  "description": "Test-Case 4: Only 'Codelist 001 Code' without another codelist. -> import as code_submission_value and log inconsistency.",
  "source": "Test source",
  "effectiveDate": "2020-01-01",
  "registrationStatus": "Final",
  "version": "2020-01-01",
  "_links": {
    "self": {
      "href": "/mdr/ct/packages/cat4-2020-01-01",
      "title": "Test-Case 4 Controlled Terminology Package 2 Effective 2020-01-01",
      "type": "Terminology"
    },
    "priorVersion": {
      "href": "/mdr/ct/packages/cat4-2019-12-01",
      "title": "Test-Case 4 Controlled Terminology Package 1 Effective 2019-12-01",
      "type": "Terminology"
    }
  },
  "codelists": [
    {
      "conceptId": "C001",
      "extensible": "true",
      "name": "Codelist 001 Code",
      "submissionValue": "SMN001",
      "definition": "Definition C001",
      "preferredTerm": "PT C001",
      "synonyms": [
        "Analysis Purpose"
      ],
      "terms": [
        {
          "conceptId": "T001",
          "submissionValue": "code-SMT001",
          "definition": "Definition T001",
          "preferredTerm": "PT T001",
          "synonyms": [
            "Synonym 1", "Synonym 2"
          ]
        }
      ]
    },
    {
      "conceptId": "C002",
      "extensible": "f",
      "name": "Codelist 002 (name as expected)",
      "submissionValue": "SMN002",
      "definition": "Definition C002",
      "preferredTerm": "PT C002",
      "terms": [
        {
          "conceptId": "T001",
          "submissionValue": "code-SMT001",
          "definition": "Definition T001",
          "preferredTerm": "PT T001",
          "synonyms": [
            "Synonym 1", "Synonym 2"
          ]
        }
      ]
    },
    {
      "conceptId": "C003",
      "extensible": "no",
      "name": "Codelist 003 name",
      "submissionValue": "SMN003",
      "definition": "Definition C003",
      "preferredTerm": "PT C003",
      "terms": [
        {
          "conceptId": "T001",
          "submissionValue": "code-SMT001",
          "definition": "Definition T001",
          "preferredTerm": "PT T001",
          "synonyms": [
            "Synonym 1", "Synonym 2"
          ]
        }
      ]
    }
  ]
}