{
  "name": "Test-Case 8 CT 2020-01-01",
  "label": "Test-Case 8 Controlled Terminology Package 1 Effective 2020-01-01",
  "description": "Test-Case 8: a) there are three submission values for the same term T1 and b) there is no submission value for T2 -> log as inconsistency.",
  "source": "Test source",
  "effectiveDate": "2020-01-01",
  "registrationStatus": "Testing",
  "version": "2020-01-01",
  "_links": {
    "self": {
      "href": "/mdr/ct/packages/cat8-2020-01-01",
      "title": "Test-Case 8 Controlled Terminology Package 2 Effective 2020-01-01",
      "type": "Terminology"
    },
    "priorVersion": {
      "href": "/mdr/ct/packages/cat8-2019-12-01",
      "title": "Test-Case 8 Controlled Terminology Package 1 Effective 2019-12-01",
      "type": "Terminology"
    }
  },
  "codelists": [
    {
      "conceptId": "C1A",
      "extensible": "true",
      "name": "Codelist 1A",
      "submissionValue": "SV",
      "definition": "Definition 1A",
      "preferredTerm": "PT 1A",
      "terms": [
        {
          "conceptId": "T1",
          "submissionValue": "sv-T1-1",
          "definition": "Definition T1",
          "preferredTerm": "PT T1"
        }
      ]
    },
    {
      "conceptId": "C1B",
      "extensible": "true",
      "name": "Codelist 1B",
      "submissionValue": "SV",
      "definition": "Definition 1B",
      "preferredTerm": "PT 1B",
      "terms": [
        {
          "conceptId": "T1",
          "submissionValue": "sv-T1-2",
          "definition": "Definition T1",
          "preferredTerm": "PT T1"
        }
      ]
    },
    {
      "conceptId": "C1C",
      "extensible": "true",
      "name": "Codelist 1C",
      "submissionValue": "SV",
      "definition": "Definition 1C",
      "preferredTerm": "PT 1C",
      "terms": [
        {
          "conceptId": "T1",
          "submissionValue": "sv-T1-3",
          "definition": "Definition T1",
          "preferredTerm": "PT T1"
        }
      ]
    },
    {
      "conceptId": "C2",
      "extensible": "true",
      "name": "Codelist 2",
      "submissionValue": "SV",
      "definition": "Definition 2",
      "preferredTerm": "PT 2",
      "terms": [
        {
          "conceptId": "T2",
          "definition": "Definition T2",
          "preferredTerm": "PT T2"
        }
      ]
    }
  ]
}