{"_links": {"self": {"href": "/mdr/cdashig/1-1-1", "title": "Clinical Data Acquisition Standards Harmonization (CDASH) User Guide V1.1", "type": "Implementation Guide"}}, "classes": [{"_links": {"parentProduct": {"href": "/mdr/cdashig/1-1-1", "title": "Clinical Data Acquisition Standards Harmonization (CDASH) User Guide V1.1", "type": "Implementation Guide"}, "self": {"href": "/mdr/cdashig/1-1-1/classes/Interventions", "title": "Interventions Observation Class", "type": "Class"}}, "description": "The Interventions class includes CDASH domains that define collection standards for investigational treatments, therapeutic treatments, and procedures that are intentionally administered to the subject either as specified by the study protocol (e.g., exposure), coincident with the study assessment period (e.g., concomitant medications), or self-administered by the subject (such as alcohol, tobacco, or caffeine). (Source: CDASHIG v2.0, Section 8.1)", "domains": [{"_links": {"parentClass": {"href": "/mdr/cdashig/1-1-1/classes/Interventions", "title": "Interventions Observation Class", "type": "Class"}, "parentProduct": {"href": "/mdr/cdashig/1-1-1", "title": "Clinical Data Acquisition Standards Harmonization (CDASH) User Guide V1.1", "type": "Implementation Guide"}, "self": {"href": "/mdr/cdashig/1-1-1/domains/CM", "title": "Prior and Concomitant Medications", "type": "CDASH Domain"}}, "fields": [{"_links": {"codelist": [{"href": "/mdr/root/ct/sdtmct/codelists/C66742", "title": "Version-agnostic anchor resource for codelist C66742", "type": "Root Value Domain"}], "parentDomain": {"href": "/mdr/cdashig/1-1-1/domains/CM", "title": "Prior and Concomitant Medications", "type": "CDASH Domain"}, "parentProduct": {"href": "/mdr/cdashig/1-1-1", "title": "Clinical Data Acquisition Standards Harmonization (CDASH) User Guide V1.1", "type": "Implementation Guide"}, "rootItem": {"href": "/mdr/root/cdashig/domains/CM/fields/CMYN", "title": "Version-agnostic anchor element for field CM.CMYN", "type": "Root Data Element"}, "self": {"href": "/mdr/cdashig/1-1-1/domains/CM/fields/CMYN", "type": "Data Collection Field"}}, "completionInstructions": "Indicate if the subject took any medications.  If Yes, include the appropriate details where indicated.", "core": "O", "definition": "General prompt question to aid in monitoring and data cleaning.  {NY} (See Section 2.2.)", "implementationNotes": "The intent/purpose of collecting this field is to help with data cleaning and monitoring. This field does not map directly to an SDTM variable.", "mappingInstructions": "Does not map to SDTM.  The CRF should be annotated to indicate that this field is NOT SUBMITTED.", "name": "CMYN", "ordinal": "1", "prompt": "Any meds?", "questionText": "Were any medications taken?", "simpleDatatype": "Char"}, {"_links": {"parentDomain": {"href": "/mdr/cdashig/1-1-1/domains/CM", "title": "Prior and Concomitant Medications", "type": "CDASH Domain"}, "parentProduct": {"href": "/mdr/cdashig/1-1-1", "title": "Clinical Data Acquisition Standards Harmonization (CDASH) User Guide V1.1", "type": "Implementation Guide"}, "rootItem": {"href": "/mdr/root/cdashig/domains/CM/fields/CMSPID", "title": "Version-agnostic anchor element for field CM.CMSPID", "type": "Root Data Element"}, "sdtmigDatasetMappingTargets": [{"href": "/mdr/sdtmig/3-1-2/datasets/CM/variables/CMSPID", "title": "Sponsor-Defined Identifier", "type": "SDTM Dataset Variable"}], "self": {"href": "/mdr/cdashig/1-1-1/domains/CM/fields/CMSPID", "type": "Data Collection Field"}}, "completionInstructions": "Example instruction: Record unique identifier for each medication for this subject. Number sequence for all following pages should not duplicate existing numbers for the subject.", "core": "O", "definition": "A sponsor-defined identifier which can be used for pre-printed numbers on the CRF.", "implementationNotes": "It can be beneficial to use an identifier in a data query to communicate clearly to the site the specific record in question or to reconcile concomitant medications and/or medical history records with AEs.", "mappingInstructions": "Maps directly to SDTM.  May be used to create RELREC to link this record with a record in another domain.", "name": "CMSPID", "ordinal": "2", "prompt": "<line number>   or   <CM number>", "questionText": "What is the medication /treatment identifier?", "simpleDatatype": "Char"}, {"_links": {"parentDomain": {"href": "/mdr/cdashig/1-1-1/domains/CM", "title": "Prior and Concomitant Medications", "type": "CDASH Domain"}, "parentProduct": {"href": "/mdr/cdashig/1-1-1", "title": "Clinical Data Acquisition Standards Harmonization (CDASH) User Guide V1.1", "type": "Implementation Guide"}, "rootItem": {"href": "/mdr/root/cdashig/domains/CM/fields/CMTRT", "title": "Version-agnostic anchor element for field CM.CMTRT", "type": "Root Data Element"}, "sdtmigDatasetMappingTargets": [{"href": "/mdr/sdtmig/3-1-2/datasets/CM/variables/CMTRT", "title": "Reported Name of Drug, Med, or Therapy", "type": "SDTM Dataset Variable"}], "self": {"href": "/mdr/cdashig/1-1-1/domains/CM/fields/CMTRT", "type": "Data Collection Field"}}, "completionInstructions": "Record only one medication per line. Provide the full trade or proprietary name of the drug or therapy; otherwise the generic name may be recorded.", "core": "HR", "definition": "Verbatim drug name or therapy (include only therapies with data collection characteristics similar medications).", "implementationNotes": "In most cases, the verbatim drug names or therapy will be coded to a standard dictionary such as WHO DRUG after the data have been collected on the CRF.  For the collection of verbatim drug name or therapy, the recommendation is to ask the sites to provide the full trade or proprietary name since it is more exact than the generic.  The full trade name provides the base generic and the appropriate salt for that particular drug.  In addition, for coding purposes it helps with ATC selection. For example the medication Tylenol with codeine #1 has a different ATC code from Tylenol with codeine #3. *See the BRIDG model for complete path.", "name": "CMTRT", "ordinal": "3", "prompt": "Medication or Therapy", "questionText": "What was the term for the medication/therapy taken? or What was the term for the medication taken?", "simpleDatatype": "Char"}, {"_links": {"codelist": [{"href": "/mdr/root/ct/sdtmct/codelists/C66742", "title": "Version-agnostic anchor resource for codelist C66742", "type": "Root Value Domain"}], "parentDomain": {"href": "/mdr/cdashig/1-1-1/domains/CM", "title": "Prior and Concomitant Medications", "type": "CDASH Domain"}, "parentProduct": {"href": "/mdr/cdashig/1-1-1", "title": "Clinical Data Acquisition Standards Harmonization (CDASH) User Guide V1.1", "type": "Implementation Guide"}, "rootItem": {"href": "/mdr/root/cdashig/domains/CM/fields/CMOCCUR", "title": "Version-agnostic anchor element for field CM.CMOCCUR", "type": "Root Data Element"}, "sdtmigDatasetMappingTargets": [{"href": "/mdr/sdtmig/3-1-2/datasets/CM/variables/CMOCCUR", "title": "CM Occurrence", "type": "SDTM Dataset Variable"}], "self": {"href": "/mdr/cdashig/1-1-1/domains/CM/fields/CMOCCUR", "type": "Data Collection Field"}}, "completionInstructions": "Please indicate if < specific medication/treatment > was taken by checking Yes or No.", "core": "O", "definition": "Used when the occurrence of a specific medication or treatment is solicited to indicate whether or not (N/Y) the treatment or medication (CMTRT) was taken or given.  This field can be used for either prior or concomitant medication/treatments. {NY} (See Section 2.2.)", "implementationNotes": "CMOCCUR should only be used for specific medications as defined by the protocol.  CMOCCUR should not be used for spontaneously reported concomitant medication/treatments. *See the BRIDG model for complete path.", "name": "CMOCCUR", "ordinal": "4", "prompt": "< specific medication/treatment >", "questionText": "Did the subject take < specific medication/treatment >? or  Has the subject taken < specific medication/treatment >?", "simpleDatatype": "Char"}, {"_links": {"parentDomain": {"href": "/mdr/cdashig/1-1-1/domains/CM", "title": "Prior and Concomitant Medications", "type": "CDASH Domain"}, "parentProduct": {"href": "/mdr/cdashig/1-1-1", "title": "Clinical Data Acquisition Standards Harmonization (CDASH) User Guide V1.1", "type": "Implementation Guide"}, "rootItem": {"href": "/mdr/root/cdashig/domains/CM/fields/CMINGRD", "title": "Version-agnostic anchor element for field CM.CMINGRD", "type": "Root Data Element"}, "self": {"href": "/mdr/cdashig/1-1-1/domains/CM/fields/CMINGRD", "type": "Data Collection Field"}}, "completionInstructions": "Prior to a subject's clinical visit, remind all subjects to bring all medications bottles, packs etc. they are taking with them to their clinical visit. Record all active ingredient(s) off the medication label and separate each ingredient with a comma for the name of drug medication or therapy taken.  For example, the medication Dolmen, if manufactured in Spain, the active ingredients should be collected as noted below: Active Ingredient: Acetylsalicylic Acid, Ascorbic acid, codeine phosphate", "core": "O", "definition": "Medication Ingredients.", "implementationNotes": "This may be collected in addition to the Medication/Therapy Name.  Collecting this provides more detailed information when coding to a medication dictionary like WHO Drug Enhanced format C which now codes to the ingredient level for many trade named medications.  For example, the medication Dolmen, depending on the country where it is manufactured, the active ingredients may be different. Spain: Acetylsalicylic Acid, Ascorbic acid, codeine phosphate Italy and Czech Republic: contains Tenoxicam Estonia and Latvia: contains Dexketoprofen trometamol This field does not map directly to an SDTM variable. *See the BRIDG model for complete path.", "mappingInstructions": "Does not map to SDTM.  The CRF should be annotated to indicate that this field is NOT SUBMITTED.", "name": "CMINGRD", "ordinal": "5", "prompt": "Active Ingredients", "questionText": "What were the active ingredients?", "simpleDatatype": "Char"}, {"_links": {"parentDomain": {"href": "/mdr/cdashig/1-1-1/domains/CM", "title": "Prior and Concomitant Medications", "type": "CDASH Domain"}, "parentProduct": {"href": "/mdr/cdashig/1-1-1", "title": "Clinical Data Acquisition Standards Harmonization (CDASH) User Guide V1.1", "type": "Implementation Guide"}, "rootItem": {"href": "/mdr/root/cdashig/domains/CM/fields/CMINDC", "title": "Version-agnostic anchor element for field CM.CMINDC", "type": "Root Data Element"}, "sdtmigDatasetMappingTargets": [{"href": "/mdr/sdtmig/3-1-2/datasets/CM/variables/CMINDC", "title": "Indication", "type": "SDTM Dataset Variable"}], "self": {"href": "/mdr/cdashig/1-1-1/domains/CM/fields/CMINDC", "type": "Data Collection Field"}}, "completionInstructions": "Record the reason the medication was taken based on clinical investigator's evaluation.  If taken to treat a condition, and a diagnosis was made, the indication should be the diagnosis.  If taken to treat a condition, and no diagnosis was made, the indication should be the signs and symptoms. If taken as prophylaxis, report as Prophylaxis for. . .", "core": "R/C", "definition": "The reason for administration of a concomitant (non-study) medication.  (e.g., Nausea, Hypertension) This is not the pharmacological/ therapeutic classification of an agent (e.g., antibiotic, analgesic, etc.), but the reason for its administration to the subject.", "implementationNotes": "This additional information is collected on the CRF when the sponsor would want to capture the reason(s) why a subject took a medication.  This information can then be used as deemed appropriate for coding, analysis (i.e., in the classification of medications), for reconciling the medications taken by a subject with their provided medical history and/or AEs/SAEs as part of the data clean-up and monitoring process, etc.  *See the BRIDG model for complete path.", "name": "CMINDC", "ordinal": "6", "prompt": "Indication", "questionText": "For what indication was the medication/therapy taken?", "simpleDatatype": "Char"}, {"_links": {"parentDomain": {"href": "/mdr/cdashig/1-1-1/domains/CM", "title": "Prior and Concomitant Medications", "type": "CDASH Domain"}, "parentProduct": {"href": "/mdr/cdashig/1-1-1", "title": "Clinical Data Acquisition Standards Harmonization (CDASH) User Guide V1.1", "type": "Implementation Guide"}, "rootItem": {"href": "/mdr/root/cdashig/domains/CM/fields/CMAENO", "title": "Version-agnostic anchor element for field CM.CMAENO", "type": "Root Data Element"}, "self": {"href": "/mdr/cdashig/1-1-1/domains/CM/fields/CMAENO", "type": "Data Collection Field"}}, "completionInstructions": "Record the identifier of the Adverse Event for which this medication was taken.", "core": "O", "definition": "Identifier for the adverse event that is the indication for this medication.", "implementationNotes": "Intent is to establish a link between the adverse event and the medication taken for the adverse event. This field does not map directly to an SDTM variable. CMAENO can be used in RELREC to identify a relationship between records in CM dataset and records in the AE dataset.  See section 8.2 in the SDTM IG V3.1.2 for information on RELREC. *See the BRIDG model for complete path.", "mappingInstructions": "May be used to create RELREC to link this record with a record in another domain.", "name": "CMAENO", "ordinal": "7", "prompt": "AE ID", "questionText": "What was the ID for the adverse event(s) for which the medication was taken?", "simpleDatatype": "Char"}, {"_links": {"parentDomain": {"href": "/mdr/cdashig/1-1-1/domains/CM", "title": "Prior and Concomitant Medications", "type": "CDASH Domain"}, "parentProduct": {"href": "/mdr/cdashig/1-1-1", "title": "Clinical Data Acquisition Standards Harmonization (CDASH) User Guide V1.1", "type": "Implementation Guide"}, "rootItem": {"href": "/mdr/root/cdashig/domains/CM/fields/CMMHNO", "title": "Version-agnostic anchor element for field CM.CMMHNO", "type": "Root Data Element"}, "self": {"href": "/mdr/cdashig/1-1-1/domains/CM/fields/CMMHNO", "type": "Data Collection Field"}}, "completionInstructions": "Record the identifier of the medical history event for which this medication was taken.", "core": "O", "definition": "Identifier for the medical history condition that is the indication for this medication.", "implementationNotes": "Intent is to establish a link between the medical history condition and the medication taken for the medical history condition. This field does not map directly to an SDTM variable. CMMHNO can be used to identify a relationship between records in the CM dataset and records in the MH dataset. See section 8.2 in the SDTMIG V3.1.2 for information on RELREC.", "mappingInstructions": "May be used to create RELREC to link this record with a record in another domain.", "name": "CMMHNO", "ordinal": "8", "prompt": "MH ID", "questionText": "What was the ID of the medical history condition(s) for which the medication was taken?", "simpleDatatype": "Char"}, {"_links": {"parentDomain": {"href": "/mdr/cdashig/1-1-1/domains/CM", "title": "Prior and Concomitant Medications", "type": "CDASH Domain"}, "parentProduct": {"href": "/mdr/cdashig/1-1-1", "title": "Clinical Data Acquisition Standards Harmonization (CDASH) User Guide V1.1", "type": "Implementation Guide"}, "rootItem": {"href": "/mdr/root/cdashig/domains/CM/fields/CMDSTXT", "title": "Version-agnostic anchor element for field CM.CMDSTXT", "type": "Root Data Element"}, "sdtmigDatasetMappingTargets": [{"href": "/mdr/sdtmig/3-1-2/datasets/CM/variables/CMDOSE", "title": "Dose per Administration", "type": "SDTM Dataset Variable"}, {"href": "/mdr/sdtmig/3-1-2/datasets/CM/variables/CMDOSTXT", "title": "Dose Description", "type": "SDTM Dataset Variable"}], "self": {"href": "/mdr/cdashig/1-1-1/domains/CM/fields/CMDSTXT", "type": "Data Collection Field"}}, "completionInstructions": "Record the dose of medication taken per administration (e.g., 200).", "core": "O", "definition": "The dose of medication taken per administration.", "implementationNotes": "Where this level of dosing information is required by a sponsor, this field may be included.  Defining this data collection field as a dose text field allows for flexibility in capturing dose entries as numbers, text or ranges.  This field does not map directly to an SDTM variable. The data collected in this dose text-format field should be separated or mapped to either SDTM IG CMDOSE if numeric or CMDOSTXT if text.", "mappingInstructions": "Numeric values map to CMDOSE in SDTM.  Non-numeric values (e.g., 200-400) map to CMDOSTXT in SDTM.", "name": "CMDSTXT", "ordinal": "9", "prompt": "Dose", "questionText": "What was the individual dose of the medication/therapy?", "simpleDatatype": "Char"}, {"_links": {"parentDomain": {"href": "/mdr/cdashig/1-1-1/domains/CM", "title": "Prior and Concomitant Medications", "type": "CDASH Domain"}, "parentProduct": {"href": "/mdr/cdashig/1-1-1", "title": "Clinical Data Acquisition Standards Harmonization (CDASH) User Guide V1.1", "type": "Implementation Guide"}, "rootItem": {"href": "/mdr/root/cdashig/domains/CM/fields/CMDOSTOT", "title": "Version-agnostic anchor element for field CM.CMDOSTOT", "type": "Root Data Element"}, "sdtmigDatasetMappingTargets": [{"href": "/mdr/sdtmig/3-1-2/datasets/CM/variables/CMDOSTOT", "title": "Total Daily Dose", "type": "SDTM Dataset Variable"}], "self": {"href": "/mdr/cdashig/1-1-1/domains/CM/fields/CMDOSTOT", "type": "Data Collection Field"}}, "completionInstructions": "Record the total dose of medication taken daily.", "core": "O", "definition": "Total daily dose taken.", "implementationNotes": "For use when only total daily dose is collected in the CRF. For general medication, it is not recommended to use Total Daily Dose.  Instead, this can be calculated or derived from other fields such as Units, Dose, and Frequency. *See the BRIDG model for complete path.", "name": "CMDOSTOT", "ordinal": "10", "prompt": "Total Daily Dose", "questionText": "What was the total daily dose of the medication/therapy?", "simpleDatatype": "Num"}, {"_links": {"codelist": [{"href": "/mdr/root/ct/sdtmct/codelists/C71620", "title": "Version-agnostic anchor resource for codelist C71620", "type": "Root Value Domain"}], "parentDomain": {"href": "/mdr/cdashig/1-1-1/domains/CM", "title": "Prior and Concomitant Medications", "type": "CDASH Domain"}, "parentProduct": {"href": "/mdr/cdashig/1-1-1", "title": "Clinical Data Acquisition Standards Harmonization (CDASH) User Guide V1.1", "type": "Implementation Guide"}, "rootItem": {"href": "/mdr/root/cdashig/domains/CM/fields/CMDOSU", "title": "Version-agnostic anchor element for field CM.CMDOSU", "type": "Root Data Element"}, "sdtmigDatasetMappingTargets": [{"href": "/mdr/sdtmig/3-1-2/datasets/CM/variables/CMDOSU", "title": "Dose Units", "type": "SDTM Dataset Variable"}], "self": {"href": "/mdr/cdashig/1-1-1/domains/CM/fields/CMDOSU", "type": "Data Collection Field"}}, "completionInstructions": "Record the dose unit of the dose of medication taken (e.g., mg.).", "core": "O", "definition": "The unit associated with the medication taken (e.g., mg in \"2mg three times per day\").  {UNIT} (See Section 2.2.)", "implementationNotes": "When sponsors collect data for amount of dose taken (i.e., Dose, Total Daily Dose), Unit must be collected as well.", "name": "CMDOSU", "ordinal": "11", "prompt": "Dose Unit", "questionText": "What was the unit of the medication/therapy?", "simpleDatatype": "Char"}, {"_links": {"codelist": [{"href": "/mdr/root/ct/sdtmct/codelists/C66726", "title": "Version-agnostic anchor resource for codelist C66726", "type": "Root Value Domain"}], "parentDomain": {"href": "/mdr/cdashig/1-1-1/domains/CM", "title": "Prior and Concomitant Medications", "type": "CDASH Domain"}, "parentProduct": {"href": "/mdr/cdashig/1-1-1", "title": "Clinical Data Acquisition Standards Harmonization (CDASH) User Guide V1.1", "type": "Implementation Guide"}, "rootItem": {"href": "/mdr/root/cdashig/domains/CM/fields/CMDOSFRM", "title": "Version-agnostic anchor element for field CM.CMDOSFRM", "type": "Root Data Element"}, "sdtmigDatasetMappingTargets": [{"href": "/mdr/sdtmig/3-1-2/datasets/CM/variables/CMDOSFRM", "title": "Dose Form", "type": "SDTM Dataset Variable"}], "self": {"href": "/mdr/cdashig/1-1-1/domains/CM/fields/CMDOSFRM", "type": "Data Collection Field"}}, "completionInstructions": "Record the pharmaceutical dosage form (e.g., TABLET CAPSULE, SYRUP) of delivery for the medication taken.", "core": "O", "definition": "Name of the pharmaceutical dosage form (e.g., TABLET CAPSULE, SYRUP) of delivery for the drug. {FRM} (See Section 2.2.)", "implementationNotes": "Some drugs have multiple forms and this field may be needed to code the drug to an ATC level.  However, in general, this level of detail should not be necessary except for medications of interest. *See the BRIDG model for complete path.", "name": "CMDOSFRM", "ordinal": "12", "prompt": "Dose Form", "questionText": "What was the dose form of the medication/therapy?", "simpleDatatype": "Char"}, {"_links": {"codelist": [{"href": "/mdr/root/ct/sdtmct/codelists/C71113", "title": "Version-agnostic anchor resource for codelist C71113", "type": "Root Value Domain"}], "parentDomain": {"href": "/mdr/cdashig/1-1-1/domains/CM", "title": "Prior and Concomitant Medications", "type": "CDASH Domain"}, "parentProduct": {"href": "/mdr/cdashig/1-1-1", "title": "Clinical Data Acquisition Standards Harmonization (CDASH) User Guide V1.1", "type": "Implementation Guide"}, "rootItem": {"href": "/mdr/root/cdashig/domains/CM/fields/CMDOSFRQ", "title": "Version-agnostic anchor element for field CM.CMDOSFRQ", "type": "Root Data Element"}, "sdtmigDatasetMappingTargets": [{"href": "/mdr/sdtmig/3-1-2/datasets/CM/variables/CMDOSFRQ", "title": "Dosing Frequency Per Interval", "type": "SDTM Dataset Variable"}], "self": {"href": "/mdr/cdashig/1-1-1/domains/CM/fields/CMDOSFRQ", "type": "Data Collection Field"}}, "completionInstructions": "Record how often the medication or therapy was taken.  (e.g., BID, PRN).", "core": "O", "definition": "How often the medication was taken (e.g., BID, PRN). {FREQ} (See Section 2.2.)", "implementationNotes": "When collected, the recommendation is to collect dosing information in separate fields for specific and consistent data collection and to enable programmatically utilizing these data.  See below for the rest of the dosing information components (Dose per Administration, and Unit.) *See the BRIDG model for complete path.", "name": "CMDOSFRQ", "ordinal": "13", "prompt": "Frequency", "questionText": "What was the frequency of the medication/therapy?", "simpleDatatype": "Char"}, {"_links": {"codelist": [{"href": "/mdr/root/ct/sdtmct/codelists/C66729", "title": "Version-agnostic anchor resource for codelist C66729", "type": "Root Value Domain"}], "parentDomain": {"href": "/mdr/cdashig/1-1-1/domains/CM", "title": "Prior and Concomitant Medications", "type": "CDASH Domain"}, "parentProduct": {"href": "/mdr/cdashig/1-1-1", "title": "Clinical Data Acquisition Standards Harmonization (CDASH) User Guide V1.1", "type": "Implementation Guide"}, "rootItem": {"href": "/mdr/root/cdashig/domains/CM/fields/CMROUTE", "title": "Version-agnostic anchor element for field CM.CMROUTE", "type": "Root Data Element"}, "sdtmigDatasetMappingTargets": [{"href": "/mdr/sdtmig/3-1-2/datasets/CM/variables/CMROUTE", "title": "Route of Administration", "type": "SDTM Dataset Variable"}], "self": {"href": "/mdr/cdashig/1-1-1/domains/CM/fields/CMROUTE", "type": "Data Collection Field"}}, "completionInstructions": "Provide the route of administration for the drug.", "core": "R/C", "definition": "Identifies the route of administration of the drug.  {ROUTE} (See Section 2.2.)", "implementationNotes": "This additional information may be important to collect on the CRF when the sponsor would want to capture a medication's route of administration for purposes such as coding and the medication may have more than one route.  Some companies may use route in coding medications to be able to choose a precise preferred name and ATC code.", "name": "CMROUTE", "ordinal": "14", "prompt": "Route", "questionText": "What was the route of administration of the medication/therapy?", "simpleDatatype": "Char"}, {"_links": {"parentDomain": {"href": "/mdr/cdashig/1-1-1/domains/CM", "title": "Prior and Concomitant Medications", "type": "CDASH Domain"}, "parentProduct": {"href": "/mdr/cdashig/1-1-1", "title": "Clinical Data Acquisition Standards Harmonization (CDASH) User Guide V1.1", "type": "Implementation Guide"}, "rootItem": {"href": "/mdr/root/cdashig/domains/CM/fields/CMSTDAT", "title": "Version-agnostic anchor element for field CM.CMSTDAT", "type": "Root Data Element"}, "sdtmigDatasetMappingTargets": [{"href": "/mdr/sdtmig/3-1-2/datasets/CM/variables/CMSTDTC", "title": "Start Date/Time of Medication", "type": "SDTM Dataset Variable"}], "self": {"href": "/mdr/cdashig/1-1-1/domains/CM/fields/CMSTDAT", "type": "Data Collection Field"}}, "completionInstructions": "Record the date the medication or therapy was first taken using this format (DD-MON-YYYY). If the subject has been taking the medication for a considerable amount of time prior to the start of the study, it is acceptable to have an incomplete date.  Medications taken during the study are expected to have a complete start date. Prior medications that are exclusionary should have both a start and end date", "core": "HR", "definition": "Date when the medication was first taken.", "implementationNotes": "The preferred method is to collect a complete Start Date.  Partial dates (e.g., providing year only) for medications started a considerable amount of time prior to the start of study are acceptable. For the SDTM-based dataset, the SDTM IG variable CMSTDTC is derived by concatenating CDASH Start Date (CMSTDAT) and Time (CMSTTIM if time is collected) and converting into ISO 8601 format.  For more detail see the Best Practice section. This field does not map directly to an SDTM variable. *See the BRIDG model for complete path.", "mappingInstructions": "For the SDTM dataset, the SDTM variable --STDTC is derived by concatenating CDASH Start Date and Time (if time is applicable) into --STDTC using the ISO 8601 format.", "name": "CMSTDAT", "ordinal": "15", "prompt": "Start Date", "questionText": "What was the start date of the medication/therapy?", "simpleDatatype": "Date (dd-MON-yyyy)"}, {"_links": {"parentDomain": {"href": "/mdr/cdashig/1-1-1/domains/CM", "title": "Prior and Concomitant Medications", "type": "CDASH Domain"}, "parentProduct": {"href": "/mdr/cdashig/1-1-1", "title": "Clinical Data Acquisition Standards Harmonization (CDASH) User Guide V1.1", "type": "Implementation Guide"}, "rootItem": {"href": "/mdr/root/cdashig/domains/CM/fields/CMSTTIM", "title": "Version-agnostic anchor element for field CM.CMSTTIM", "type": "Root Data Element"}, "sdtmigDatasetMappingTargets": [{"href": "/mdr/sdtmig/3-1-2/datasets/CM/variables/CMSTDTC", "title": "Start Date/Time of Medication", "type": "SDTM Dataset Variable"}], "self": {"href": "/mdr/cdashig/1-1-1/domains/CM/fields/CMSTTIM", "type": "Data Collection Field"}}, "completionInstructions": "Record the time (as complete as possible) that the medication or therapy was started.", "core": "R/C", "definition": "Time the medication was started.", "implementationNotes": "Recommend collecting the time a medication was started when a protocol or data collection scenarios supports it.  Typically, a start time is not collected unless the subject is under the direct care of the site at the time a medication or therapy is administered. For the SDTM-based dataset, the SDTM IG variable CMSTDTC is derived by concatenating CDASH Start Date (CMSTDAT) and Time (CMSTTM if time is collected) and converting ISO 8601 format. For more detail see the Best Practice section.  This field does not map directly to an SDTM variable. *See the BRIDG model for complete path.", "mappingInstructions": "For the SDTM dataset, the SDTM variable --STDTC is derived by concatenating CDASH Start Date and Time (if time is applicable) into --STDTC using the ISO 8601 format.", "name": "CMSTTIM", "ordinal": "16", "prompt": "Start Time", "questionText": "What was the start time of the medication/therapy?", "simpleDatatype": "Time (24 hour)"}, {"_links": {"codelist": [{"href": "/mdr/root/ct/sdtmct/codelists/C66742", "title": "Version-agnostic anchor resource for codelist C66742", "type": "Root Value Domain"}], "parentDomain": {"href": "/mdr/cdashig/1-1-1/domains/CM", "title": "Prior and Concomitant Medications", "type": "CDASH Domain"}, "parentProduct": {"href": "/mdr/cdashig/1-1-1", "title": "Clinical Data Acquisition Standards Harmonization (CDASH) User Guide V1.1", "type": "Implementation Guide"}, "rootItem": {"href": "/mdr/root/cdashig/domains/CM/fields/CMPRIOR", "title": "Version-agnostic anchor element for field CM.CMPRIOR", "type": "Root Data Element"}, "sdtmigDatasetMappingTargets": [{"href": "/mdr/sdtmig/3-1-2/datasets/CM/variables/CMSTRTPT", "title": "Start Relative to Reference Time Point", "type": "SDTM Dataset Variable"}, {"href": "/mdr/sdtmig/3-1-2/datasets/CM/variables/CMSTRF", "title": "Start Relative to Reference Period", "type": "SDTM Dataset Variable"}, {"href": "/mdr/sdtmig/3-1-2/datasets/CM/variables/CMSTTPT", "title": "Start Reference Time Point", "type": "SDTM Dataset Variable"}], "self": {"href": "/mdr/cdashig/1-1-1/domains/CM/fields/CMPRIOR", "type": "Data Collection Field"}}, "completionInstructions": "Check if the medication or therapy was started before the study.", "core": "R/C", "definition": "To determine if medications were taken prior to study start. {NY} (See Section 2.2.)", "implementationNotes": "See section 2.1.3 Mapping Relative Times from Collection to Submissions and the SDTM IG for more information.  This field does not map directly to an SDTM variable.", "mappingInstructions": "May be used to derive a value into an SDTM relative timing variable such as CMSTRF or CMSTRTPT.  When populating CMSTRF, if the value of CMPRIOR is 'Y', the value of 'BEFORE' may be derived.  When populating CMSTRTPT, if the value of CMPRIOR is 'Y', the value of 'BEFORE' may be derived. Note: CMSTRTPT must refer to a 'time point anchor' described in CMSTTPT.  See SDTMIG section 4.1.4.7 for more information.", "name": "CMPRIOR", "ordinal": "17", "prompt": "Taken Prior to Study?", "questionText": "Was the medication/therapy taken prior to the study?", "simpleDatatype": "Char"}, {"_links": {"parentDomain": {"href": "/mdr/cdashig/1-1-1/domains/CM", "title": "Prior and Concomitant Medications", "type": "CDASH Domain"}, "parentProduct": {"href": "/mdr/cdashig/1-1-1", "title": "Clinical Data Acquisition Standards Harmonization (CDASH) User Guide V1.1", "type": "Implementation Guide"}, "rootItem": {"href": "/mdr/root/cdashig/domains/CM/fields/CMENDAT", "title": "Version-agnostic anchor element for field CM.CMENDAT", "type": "Root Data Element"}, "sdtmigDatasetMappingTargets": [{"href": "/mdr/sdtmig/3-1-2/datasets/CM/variables/CMENDTC", "title": "End Date/Time of Medication", "type": "SDTM Dataset Variable"}], "self": {"href": "/mdr/cdashig/1-1-1/domains/CM/fields/CMENDAT", "type": "Data Collection Field"}}, "completionInstructions": "Record the date the subject stopped taking the medication or therapy using this format (DD-MON-YYYY). If the subject has not stopped taking the medication leave this field blank.", "core": "R/C", "definition": "Date that the subject stopped taking the medication or therapy.", "implementationNotes": "The assumption is that sponsors should either have a complete end date or will indicate that the medication or therapy was ongoing at the time of collection or at the end of the study. However, in cases where the End Date can be determined from dates collected elsewhere in the CRF it is not necessary to include an End Date in the CRF.  For example, if all concomitant medications are administered as a single dose, the End Date will be the same as the Start Date. For the SDTM-based dataset, the SDTM IG variable CMENDTC is derived by concatenating CDASH End Date (CMENDAT) and Time (CMENTIM if time is collected) and converting to ISO 8601 format. For more detail see the Best Practice section.  This field does not map directly to an SDTM variable. *See the BRIDG model for complete path.", "mappingInstructions": "For the SDTM dataset, the SDTM variable --ENDTC is derived by concatenating CDASH End Date and Time (if time is applicable) into --ENDTC using the ISO 8601 format.", "name": "CMENDAT", "ordinal": "18", "prompt": "End Date", "questionText": "What was the end date of the medication/therapy?", "simpleDatatype": "Date (dd-MON-yyyy)"}, {"_links": {"parentDomain": {"href": "/mdr/cdashig/1-1-1/domains/CM", "title": "Prior and Concomitant Medications", "type": "CDASH Domain"}, "parentProduct": {"href": "/mdr/cdashig/1-1-1", "title": "Clinical Data Acquisition Standards Harmonization (CDASH) User Guide V1.1", "type": "Implementation Guide"}, "rootItem": {"href": "/mdr/root/cdashig/domains/CM/fields/CMENTIM", "title": "Version-agnostic anchor element for field CM.CMENTIM", "type": "Root Data Element"}, "sdtmigDatasetMappingTargets": [{"href": "/mdr/sdtmig/3-1-2/datasets/CM/variables/CMENDTC", "title": "End Date/Time of Medication", "type": "SDTM Dataset Variable"}], "self": {"href": "/mdr/cdashig/1-1-1/domains/CM/fields/CMENTIM", "type": "Data Collection Field"}}, "completionInstructions": "Record the time (as complete as possible) that the medication or therapy was stopped.", "core": "R/C", "definition": "Time when the subject stopped taking the medication or therapy.", "implementationNotes": "Recommend collecting the time a medication or therapy was ended when a protocol or data collection scenarios supports it.  Typically, an end time is not collected unless the subject is under the direct care of the site at the time a medication or therapy is stopped. For the SDTM-based dataset, the SDTM IG variable CMENDTC is derived by concatenating CDASH End Date (CMENDAT) and Time (CMENTIM if time is collected) and converted to ISO 8601 format. For more detail see the Best Practice section. This field does not map directly to an SDTM variable. *See the BRIDG model for complete path.", "mappingInstructions": "For the SDTM dataset, the SDTM variable --ENDTC is derived by concatenating CDASH End Date and Time (if time is applicable) into --ENDTC using the ISO 8601 format.", "name": "CMENTIM", "ordinal": "19", "prompt": "End Time", "questionText": "What was the end time of the medication/therapy?", "simpleDatatype": "Time (24 hour)"}, {"_links": {"codelist": [{"href": "/mdr/root/ct/sdtmct/codelists/C66742", "title": "Version-agnostic anchor resource for codelist C66742", "type": "Root Value Domain"}], "parentDomain": {"href": "/mdr/cdashig/1-1-1/domains/CM", "title": "Prior and Concomitant Medications", "type": "CDASH Domain"}, "parentProduct": {"href": "/mdr/cdashig/1-1-1", "title": "Clinical Data Acquisition Standards Harmonization (CDASH) User Guide V1.1", "type": "Implementation Guide"}, "rootItem": {"href": "/mdr/root/cdashig/domains/CM/fields/CMONGO", "title": "Version-agnostic anchor element for field CM.CMONGO", "type": "Root Data Element"}, "sdtmigDatasetMappingTargets": [{"href": "/mdr/sdtmig/3-1-2/datasets/CM/variables/CMENRF", "title": "End Relative to Reference Period", "type": "SDTM Dataset Variable"}, {"href": "/mdr/sdtmig/3-1-2/datasets/CM/variables/CMENTPT", "title": "End Reference Time Point", "type": "SDTM Dataset Variable"}, {"href": "/mdr/sdtmig/3-1-2/datasets/CM/variables/CMENRTPT", "title": "End Relative to Reference Time Point", "type": "SDTM Dataset Variable"}], "self": {"href": "/mdr/cdashig/1-1-1/domains/CM/fields/CMONGO", "type": "Data Collection Field"}}, "completionInstructions": "Record the medication or therapy as ongoing if the subject has not stopped taking the medication or therapy at the time of data collection and the end date should be left blank.", "core": "R/C", "definition": "Indicates medication or therapy is ongoing when no End Date is provided.  {NY} (See Section 2.2)", "implementationNotes": "This box should be checked to indicate that the medication or therapy has not stopped at the time of data collection.  It is expected that every recorded medication or therapy should have either an End Date or be checked as Ongoing, but not both. However, in cases where ongoing concomitant medications are not permitted, it may not be necessary to include an Ongoing field in the CRF. Reference section 2.1.3 for more information about collecting relative date/time and see section 4.1.4 of the SDTM IG V. 3.1.2 for information about mapping relative times. This field does not map directly to an SDTM variable.", "mappingInstructions": "May be used to derive a value into an SDTM relative timing variable such as CMENRF or CMENRTPT.  When populating CMENRF, if the value of CMONGO is 'Y', the value of 'DURING', 'AFTER' or 'DURING/AFTER' may be derived.  When populating CMENRTPT, if the value of CMONGO is 'Y', the value of 'ONGOING' may be derived. Note: CMENRTPT must refer to a 'time point anchor' described in CMENTPT.", "name": "CMONGO", "ordinal": "20", "prompt": "Ongoing", "questionText": "Is the medication/therapy still ongoing?", "simpleDatatype": "Char"}, {"_links": {"parentDomain": {"href": "/mdr/cdashig/1-1-1/domains/CM", "title": "Prior and Concomitant Medications", "type": "CDASH Domain"}, "parentProduct": {"href": "/mdr/cdashig/1-1-1", "title": "Clinical Data Acquisition Standards Harmonization (CDASH) User Guide V1.1", "type": "Implementation Guide"}, "rootItem": {"href": "/mdr/root/cdashig/domains/CM/fields/SPONSOR", "title": "Version-agnostic anchor element for field CM.SPONSOR", "type": "Root Data Element"}, "self": {"href": "/mdr/cdashig/1-1-1/domains/CM/fields/SPONSOR", "type": "Data Collection Field"}}, "completionInstructions": "Not applicable", "core": "O", "definition": "A unique identifier for a study sponsor.  An individual, company, institution, or organization that takes responsibility for the initiation and management of a clinical trial, although may or may not be the main funding organization.  If there is also a secondary sponsor, this entity would be considered the primary sponsor. A corporation or agency whose employees conduct the investigation is considered a sponsor and the employees are considered investigators.", "implementationNotes": "This is typically pre-printed. It may be used as an identifier in external data warehouses (e.g. Janus) and in electronic medical records or other partnerships for sharing data. This field does not map directly to an SDTM variable. *See the BRIDG model for complete path.", "name": "SPONSOR", "ordinal": "101", "prompt": "Sponsor", "questionText": "What is the sponsor identifier?", "simpleDatatype": "Char"}, {"_links": {"parentDomain": {"href": "/mdr/cdashig/1-1-1/domains/CM", "title": "Prior and Concomitant Medications", "type": "CDASH Domain"}, "parentProduct": {"href": "/mdr/cdashig/1-1-1", "title": "Clinical Data Acquisition Standards Harmonization (CDASH) User Guide V1.1", "type": "Implementation Guide"}, "rootItem": {"href": "/mdr/root/cdashig/domains/CM/fields/STUDYID", "title": "Version-agnostic anchor element for field CM.STUDYID", "type": "Root Data Element"}, "sdtmigDatasetMappingTargets": [{"href": "/mdr/sdtmig/3-1-2/datasets/CM/variables/STUDYID", "title": "Study Identifier", "type": "SDTM Dataset Variable"}], "self": {"href": "/mdr/cdashig/1-1-1/domains/CM/fields/STUDYID", "type": "Data Collection Field"}}, "completionInstructions": "Not applicable.", "core": "HR", "definition": "Unique identifier for a study.", "implementationNotes": "This is typically pre-printed/pre-populated. *See the BRIDG model for complete path.", "name": "STUDYID", "ordinal": "102", "prompt": "Protocol or Study", "questionText": "What is the study identifier?", "simpleDatatype": "Char"}, {"_links": {"parentDomain": {"href": "/mdr/cdashig/1-1-1/domains/CM", "title": "Prior and Concomitant Medications", "type": "CDASH Domain"}, "parentProduct": {"href": "/mdr/cdashig/1-1-1", "title": "Clinical Data Acquisition Standards Harmonization (CDASH) User Guide V1.1", "type": "Implementation Guide"}, "rootItem": {"href": "/mdr/root/cdashig/domains/CM/fields/SITEID", "title": "Version-agnostic anchor element for field CM.SITEID", "type": "Root Data Element"}, "sdtmigDatasetMappingTargets": [{"href": "/mdr/sdtmig/3-1-2/datasets/DM/variables/SITEID", "title": "Study Site Identifier", "type": "SDTM Dataset Variable"}], "self": {"href": "/mdr/cdashig/1-1-1/domains/CM/fields/SITEID", "type": "Data Collection Field"}}, "completionInstructions": "Record your clinical site's identifier as defined by the sponsor.", "core": "HR", "definition": "Unique identifier for a site within a study.", "implementationNotes": "Paper: This is typically pre-printed in the header of each CRF page for single site studies.  For studies with multiple sites, this field is typically left blank so that the number can be recorded by the site. EDC: This should be pre-populated. SITENO has been deprecated in CDASH v1.1 and should no longer be used, because SDTM IG V3.1.2 has changed the SITEID variable definition to require uniqueness only within a study, and not within the submission.", "name": "SITEID", "ordinal": "103", "prompt": "Site", "questionText": "What is the site identifier?", "simpleDatatype": "Char"}, {"_links": {"parentDomain": {"href": "/mdr/cdashig/1-1-1/domains/CM", "title": "Prior and Concomitant Medications", "type": "CDASH Domain"}, "parentProduct": {"href": "/mdr/cdashig/1-1-1", "title": "Clinical Data Acquisition Standards Harmonization (CDASH) User Guide V1.1", "type": "Implementation Guide"}, "rootItem": {"href": "/mdr/root/cdashig/domains/CM/fields/SUBJID", "title": "Version-agnostic anchor element for field CM.SUBJID", "type": "Root Data Element"}, "sdtmigDatasetMappingTargets": [{"href": "/mdr/sdtmig/3-1-2/datasets/DM/variables/SUBJID", "title": "Subject Identifier for the Study", "type": "SDTM Dataset Variable"}], "self": {"href": "/mdr/cdashig/1-1-1/domains/CM/fields/SUBJID", "type": "Data Collection Field"}}, "completionInstructions": "Record the identifier for the subject.", "core": "HR", "definition": "Identifier assigned to each trial subject to protect the subject's identity, and used instead of the subject's name when the Investigator reports trial data.", "implementationNotes": "Paper: This is typically recorded in the header of each CRF page. EDC: The subject identifiers may be provided to the site using a pre-populated list in the system.", "name": "SUBJID", "ordinal": "104", "prompt": "Subject", "questionText": "What is the subject identifier?", "simpleDatatype": "Char"}, {"_links": {"parentDomain": {"href": "/mdr/cdashig/1-1-1/domains/CM", "title": "Prior and Concomitant Medications", "type": "CDASH Domain"}, "parentProduct": {"href": "/mdr/cdashig/1-1-1", "title": "Clinical Data Acquisition Standards Harmonization (CDASH) User Guide V1.1", "type": "Implementation Guide"}, "rootItem": {"href": "/mdr/root/cdashig/domains/CM/fields/USUBJID", "title": "Version-agnostic anchor element for field CM.USUBJID", "type": "Root Data Element"}, "sdtmigDatasetMappingTargets": [{"href": "/mdr/sdtmig/3-1-2/datasets/CM/variables/USUBJID", "title": "Unique Subject Identifier", "type": "SDTM Dataset Variable"}], "self": {"href": "/mdr/cdashig/1-1-1/domains/CM/fields/USUBJID", "type": "Data Collection Field"}}, "completionInstructions": "Not applicable.", "core": "O", "definition": "Identifier used to uniquely identify a subject across all studies or all applications or submissions involving the product.", "implementationNotes": "While in SDTM this is a Required variable for all subjects, in CDASH it may be used to record prospectively the identifier for subjects who are in multiple studies within a clinical program. Rarely collected on the CRF. When a subject participated in more than one study or site within a development program, SDTM requires identification of the individual uniquely through this study-shared subject identifier.", "name": "USUBJID", "ordinal": "105", "prompt": "Unique Subject ID", "questionText": "For this multi-study subject, what is the unique subject identifier?", "simpleDatatype": "Char"}, {"_links": {"parentDomain": {"href": "/mdr/cdashig/1-1-1/domains/CM", "title": "Prior and Concomitant Medications", "type": "CDASH Domain"}, "parentProduct": {"href": "/mdr/cdashig/1-1-1", "title": "Clinical Data Acquisition Standards Harmonization (CDASH) User Guide V1.1", "type": "Implementation Guide"}, "rootItem": {"href": "/mdr/root/cdashig/domains/CM/fields/INVID", "title": "Version-agnostic anchor element for field CM.INVID", "type": "Root Data Element"}, "sdtmigDatasetMappingTargets": [{"href": "/mdr/sdtmig/3-1-2/datasets/DM/variables/INVID", "title": "Investigator Identifier", "type": "SDTM Dataset Variable"}], "self": {"href": "/mdr/cdashig/1-1-1/domains/CM/fields/INVID", "type": "Data Collection Field"}}, "completionInstructions": "Record the sponsor-defined identifier for your site investigator.", "core": "O", "definition": "A unique identifier assigned to an Investigator.", "implementationNotes": "If an investigator is associated with more than one site or the site has more than one investigator, it may be necessary to collect this information.  However, if there is only one investigator at each site, this may be equivalent to SITEID, and would not be necessary to collect.", "name": "INVID", "ordinal": "106", "prompt": "Investigator", "questionText": "What is the investigator identifier?", "simpleDatatype": "Char"}, {"_links": {"parentDomain": {"href": "/mdr/cdashig/1-1-1/domains/CM", "title": "Prior and Concomitant Medications", "type": "CDASH Domain"}, "parentProduct": {"href": "/mdr/cdashig/1-1-1", "title": "Clinical Data Acquisition Standards Harmonization (CDASH) User Guide V1.1", "type": "Implementation Guide"}, "rootItem": {"href": "/mdr/root/cdashig/domains/CM/fields/VISIT", "title": "Version-agnostic anchor element for field CM.VISIT", "type": "Root Data Element"}, "sdtmClassMappingTargets": [{"href": "/mdr/sdtm/1-2/classes/GeneralObservations/variables/VISIT", "title": "Visit Name", "type": "Class Variable"}], "self": {"href": "/mdr/cdashig/1-1-1/domains/CM/fields/VISIT", "type": "Data Collection Field"}}, "completionInstructions": "When applicable (e.g., on paper CRFs), record the visit name.", "core": "O", "definition": "A clinical encounter that encompasses planned and unplanned trial inventions, procedures, and assessments that may be performed on a subject.", "implementationNotes": "This is typically pre-printed/pre-populated.*See the BRIDG model for complete path.", "name": "VISIT", "ordinal": "301", "prompt": "Visit", "questionText": "What is the visit name?", "simpleDatatype": "Char"}, {"_links": {"parentDomain": {"href": "/mdr/cdashig/1-1-1/domains/CM", "title": "Prior and Concomitant Medications", "type": "CDASH Domain"}, "parentProduct": {"href": "/mdr/cdashig/1-1-1", "title": "Clinical Data Acquisition Standards Harmonization (CDASH) User Guide V1.1", "type": "Implementation Guide"}, "rootItem": {"href": "/mdr/root/cdashig/domains/CM/fields/VISITNUM", "title": "Version-agnostic anchor element for field CM.VISITNUM", "type": "Root Data Element"}, "sdtmClassMappingTargets": [{"href": "/mdr/sdtm/1-2/classes/GeneralObservations/variables/VISITNUM", "title": "Visit Number", "type": "Class Variable"}], "self": {"href": "/mdr/cdashig/1-1-1/domains/CM/fields/VISITNUM", "type": "Data Collection Field"}}, "completionInstructions": "When applicable (e.g., on paper CRFs), record the visit number.", "core": "O", "definition": "A number assigned to a clinical encounter.", "implementationNotes": "This is typically pre-printed/pre-populated. A visit number may be used to represent the chronological order of the clinical encounters.", "name": "VISITNUM", "ordinal": "302", "prompt": "Visit Number", "questionText": "What is the visit number?", "simpleDatatype": "Num"}, {"_links": {"parentDomain": {"href": "/mdr/cdashig/1-1-1/domains/CM", "title": "Prior and Concomitant Medications", "type": "CDASH Domain"}, "parentProduct": {"href": "/mdr/cdashig/1-1-1", "title": "Clinical Data Acquisition Standards Harmonization (CDASH) User Guide V1.1", "type": "Implementation Guide"}, "rootItem": {"href": "/mdr/root/cdashig/domains/CM/fields/VISDAT", "title": "Version-agnostic anchor element for field CM.VISDAT", "type": "Root Data Element"}, "self": {"href": "/mdr/cdashig/1-1-1/domains/CM/fields/VISDAT", "type": "Data Collection Field"}}, "completionInstructions": "Record the date the visit took place or started in this format (DD-MON-YYYY).", "core": "R/C", "definition": "Date the clinical encounter occurred (or started).", "implementationNotes": "If the data being collected are visit-based, a date should be collected some way.  This may be done once for the visit using VISDAT or may be done at the CRF level using the domain-specific --DAT field. This may be recorded in either the header of the CRF or in the body of the CRF. This field does not map directly to an SDTM variable.*See the BRIDG model for complete path.", "name": "VISDAT", "ordinal": "303", "prompt": "Visit Date", "questionText": "What is the visit date?", "simpleDatatype": "Date (dd-MON-yyyy)"}], "label": "Prior and Concomitant Medications", "name": "CM", "ordinal": "2"}, {"_links": {"parentClass": {"href": "/mdr/cdashig/1-1-1/classes/Interventions", "title": "Interventions Observation Class", "type": "Class"}, "parentProduct": {"href": "/mdr/cdashig/1-1-1", "title": "Clinical Data Acquisition Standards Harmonization (CDASH) User Guide V1.1", "type": "Implementation Guide"}, "self": {"href": "/mdr/cdashig/1-1-1/domains/EX", "title": "Exposure", "type": "CDASH Domain"}}, "fields": [{"_links": {"codelist": [{"href": "/mdr/root/ct/sdtmct/codelists/C66742", "title": "Version-agnostic anchor resource for codelist C66742", "type": "Root Value Domain"}], "parentDomain": {"href": "/mdr/cdashig/1-1-1/domains/EX", "title": "Exposure", "type": "CDASH Domain"}, "parentProduct": {"href": "/mdr/cdashig/1-1-1", "title": "Clinical Data Acquisition Standards Harmonization (CDASH) User Guide V1.1", "type": "Implementation Guide"}, "rootItem": {"href": "/mdr/root/cdashig/domains/EX/fields/EXYN", "title": "Version-agnostic anchor element for field EX.EXYN", "type": "Root Data Element"}, "self": {"href": "/mdr/cdashig/1-1-1/domains/EX/fields/EXYN", "type": "Data Collection Field"}}, "completionInstructions": "Indicate if the subject took any medications.  If Yes, include the appropriate details where indicated.", "core": "O", "definition": "A general prompt question to aid in monitoring and data cleaning.  Indicates if data is available regarding whether the subject took study medication/ treatment. {NY} (See Section 2.2.)", "implementationNotes": "The CDASH EXYN question establishes the availability of any treatment data for the subject.  It does not establish whether the subject was administered any treatment.   Therefore, it does not map into the SDTM variable EXOCCUR.  EXOCCUR indicates whether the subject was administered treatment/medication. If treatment data is available (EXYN = Y), EXOCCUR may be populated based on whether subject was actually administered treatment/medication. The intent/purpose of collecting this field is to help with data cleaning and monitoring. EXYN will not be included as part of the SDTM IG EX Domain for submission.  This field does not map directly to an SDTM variable.", "mappingInstructions": "Does not map to SDTM.   The CRF should be annotated to indicate that this field is NOT SUBMITTED.", "name": "EXYN", "ordinal": "1", "prompt": "Treatment?", "questionText": "Is treatment data available?", "simpleDatatype": "Char"}, {"_links": {"parentDomain": {"href": "/mdr/cdashig/1-1-1/domains/EX", "title": "Exposure", "type": "CDASH Domain"}, "parentProduct": {"href": "/mdr/cdashig/1-1-1", "title": "Clinical Data Acquisition Standards Harmonization (CDASH) User Guide V1.1", "type": "Implementation Guide"}, "rootItem": {"href": "/mdr/root/cdashig/domains/EX/fields/EXSTDAT", "title": "Version-agnostic anchor element for field EX.EXSTDAT", "type": "Root Data Element"}, "sdtmigDatasetMappingTargets": [{"href": "/mdr/sdtmig/3-1-2/datasets/EX/variables/EXSTDTC", "title": "Start Date/Time of Treatment", "type": "SDTM Dataset Variable"}], "self": {"href": "/mdr/cdashig/1-1-1/domains/EX/fields/EXSTDAT", "type": "Data Collection Field"}}, "completionInstructions": "Record the start date of the study treatment administration using this format (DD-MON-YYYY).", "core": "HR", "definition": "Start date of treatment.", "implementationNotes": "Date when constant dosing interval of the study treatment started or single administration occurred. For the SDTM-based dataset, the SDTM IG variable EXSTDTC is derived by concatenating CDASH Start Date (EXSTDAT) and Time (EXSTTIM) of treatment (if time is collected) into EXSTDTC using the ISO 8601 format. For more detail see the Best Practice section. This field does not map directly to an SDTM variable. *See the BRIDG model for complete path.", "mappingInstructions": "For the SDTM dataset, the SDTM variable --STDTC is derived by concatenating CDASH Start Date and Time (if time is applicable) into --STDTC using the ISO 8601 format.", "name": "EXSTDAT", "ordinal": "2", "prompt": "Start Date", "questionText": "What was the treatment start date?", "simpleDatatype": "Date (dd-MON-yyyy)"}, {"_links": {"parentDomain": {"href": "/mdr/cdashig/1-1-1/domains/EX", "title": "Exposure", "type": "CDASH Domain"}, "parentProduct": {"href": "/mdr/cdashig/1-1-1", "title": "Clinical Data Acquisition Standards Harmonization (CDASH) User Guide V1.1", "type": "Implementation Guide"}, "rootItem": {"href": "/mdr/root/cdashig/domains/EX/fields/EXSTTIM", "title": "Version-agnostic anchor element for field EX.EXSTTIM", "type": "Root Data Element"}, "sdtmigDatasetMappingTargets": [{"href": "/mdr/sdtmig/3-1-2/datasets/EX/variables/EXSTDTC", "title": "Start Date/Time of Treatment", "type": "SDTM Dataset Variable"}], "self": {"href": "/mdr/cdashig/1-1-1/domains/EX/fields/EXSTTIM", "type": "Data Collection Field"}}, "completionInstructions": "Record the start time (as complete as possible) when administration of study treatment started.", "core": "R/C", "definition": "Start time of treatment.", "implementationNotes": "Time when study treatment period started. For the SDTM-based dataset, the SDTM IG variable EXSTDTC is derived by concatenating CDASH Start Date (EXSTDAT) and Time (EXSTTIM) of treatment (if time is collected) into EXSTDTC using the ISO 8601 format. For more detail see the Best Practice section. This field does not map directly to an SDTM variable. *See the BRIDG model for complete path.", "mappingInstructions": "For the SDTM dataset, the SDTM variable --STDTC is derived by concatenating CDASH Start Date and Time (if time is applicable) into --STDTC using the ISO 8601 format.", "name": "EXSTTIM", "ordinal": "3", "prompt": "Start Time", "questionText": "What was the treatment start time?", "simpleDatatype": "Time (24 hour)"}, {"_links": {"parentDomain": {"href": "/mdr/cdashig/1-1-1/domains/EX", "title": "Exposure", "type": "CDASH Domain"}, "parentProduct": {"href": "/mdr/cdashig/1-1-1", "title": "Clinical Data Acquisition Standards Harmonization (CDASH) User Guide V1.1", "type": "Implementation Guide"}, "rootItem": {"href": "/mdr/root/cdashig/domains/EX/fields/EXREFID", "title": "Version-agnostic anchor element for field EX.EXREFID", "type": "Root Data Element"}, "self": {"href": "/mdr/cdashig/1-1-1/domains/EX/fields/EXREFID", "type": "Data Collection Field"}}, "completionInstructions": "Record treatment label identifier.", "core": "R/C", "definition": "Treatment label identifier (e.g. kit number, bottle label, vial identifier).", "implementationNotes": "This packaging identifier (e.g. kit number, bottle label, vial identifier) may be collected in different ways (e.g. affixing label onto CRF or scanning a bar code). For some study dosing regimens, greater granularity for treatment identifiers may be needed.  In this situation, sponsors may need to use additional variables.", "name": "EXREFID", "ordinal": "4", "prompt": "Treatment label ID", "questionText": "What is the treatment label identifier?", "simpleDatatype": "Char"}, {"_links": {"parentDomain": {"href": "/mdr/cdashig/1-1-1/domains/EX", "title": "Exposure", "type": "CDASH Domain"}, "parentProduct": {"href": "/mdr/cdashig/1-1-1", "title": "Clinical Data Acquisition Standards Harmonization (CDASH) User Guide V1.1", "type": "Implementation Guide"}, "rootItem": {"href": "/mdr/root/cdashig/domains/EX/fields/EXENDAT", "title": "Version-agnostic anchor element for field EX.EXENDAT", "type": "Root Data Element"}, "sdtmigDatasetMappingTargets": [{"href": "/mdr/sdtmig/3-1-2/datasets/EX/variables/EXENDTC", "title": "End Date/Time of Treatment", "type": "SDTM Dataset Variable"}], "self": {"href": "/mdr/cdashig/1-1-1/domains/EX/fields/EXENDAT", "type": "Data Collection Field"}}, "completionInstructions": "Record the end date or last date of administration of study treatment using this format (DD-MON-YYYY).", "core": "R/C", "definition": "End date of treatment.", "implementationNotes": "Date when study treatment period stopped. If start date and end date are not expected to be on the same date, the end date is required.  If the study design indicates that the start and end date are on the same day, the end date is not required since it can be assigned to be equal to the start date.  For the SDTM-based dataset, the SDTM IG variable EXENDTC is derived by concatenating CDASH End Date (EXENDAT) and Time (EXENTIM) of treatment (if time is collected) into EXENDTC using the ISO 8601 format. For more detail see the Best Practice section. This field does not map directly to an SDTM variable. *See the BRIDG model for complete path.", "mappingInstructions": "For the SDTM dataset, the SDTM variable --ENDTC is derived by concatenating CDASH End Date and Time (if time is applicable) into --ENDTC using the ISO 8601 format.", "name": "EXENDAT", "ordinal": "5", "prompt": "End Date", "questionText": "What was the treatment end date?", "simpleDatatype": "Date (dd-MON-yyyy)"}, {"_links": {"parentDomain": {"href": "/mdr/cdashig/1-1-1/domains/EX", "title": "Exposure", "type": "CDASH Domain"}, "parentProduct": {"href": "/mdr/cdashig/1-1-1", "title": "Clinical Data Acquisition Standards Harmonization (CDASH) User Guide V1.1", "type": "Implementation Guide"}, "rootItem": {"href": "/mdr/root/cdashig/domains/EX/fields/EXENTIM", "title": "Version-agnostic anchor element for field EX.EXENTIM", "type": "Root Data Element"}, "sdtmigDatasetMappingTargets": [{"href": "/mdr/sdtmig/3-1-2/datasets/EX/variables/EXENDTC", "title": "End Date/Time of Treatment", "type": "SDTM Dataset Variable"}], "self": {"href": "/mdr/cdashig/1-1-1/domains/EX/fields/EXENTIM", "type": "Data Collection Field"}}, "completionInstructions": "Record the time, (as complete as possible) when study treatment administration stopped (e.g., for infusions this is the time when the infusion ended).", "core": "R/C", "definition": "End time of treatment.", "implementationNotes": "Time when study treatment constant dosing interval ended. For the SDTM-based dataset, the SDTM IG variable EXENDTC is derived by concatenating CDASH End Date (EXENDAT) and Time (EXENTIM) of treatment (if time is collected) into EXENDTC using the ISO 8601 format. For more detail see the Best Practice section. This field does not map directly to an SDTM variable. *See the BRIDG model for complete path.", "mappingInstructions": "For the SDTM dataset, the SDTM variable --ENDTC is derived by concatenating CDASH End Date and Time (if time is applicable) into --ENDTC using the ISO 8601 format.", "name": "EXENTIM", "ordinal": "6", "prompt": "End Time", "questionText": "What was the treatment end time?", "simpleDatatype": "Time (24 hour)"}, {"_links": {"parentDomain": {"href": "/mdr/cdashig/1-1-1/domains/EX", "title": "Exposure", "type": "CDASH Domain"}, "parentProduct": {"href": "/mdr/cdashig/1-1-1", "title": "Clinical Data Acquisition Standards Harmonization (CDASH) User Guide V1.1", "type": "Implementation Guide"}, "rootItem": {"href": "/mdr/root/cdashig/domains/EX/fields/EXDSTXT", "title": "Version-agnostic anchor element for field EX.EXDSTXT", "type": "Root Data Element"}, "sdtmigDatasetMappingTargets": [{"href": "/mdr/sdtmig/3-1-2/datasets/EX/variables/EXDOSTXT", "title": "Dose Description", "type": "SDTM Dataset Variable"}, {"href": "/mdr/sdtmig/3-1-2/datasets/EX/variables/EXDOSE", "title": "Dose per Administration", "type": "SDTM Dataset Variable"}], "self": {"href": "/mdr/cdashig/1-1-1/domains/EX/fields/EXDSTXT", "type": "Data Collection Field"}}, "completionInstructions": "Record the dose or amount of study treatment that was administered to/taken by the subject in the period recorded; from the start date/time to the end date/time inclusive.", "core": "R/C", "definition": "Dose per administration.", "implementationNotes": "Dose or amount taken for single administration of study treatment or per constant dosing interval recorded. Dose must be collected if it cannot be derived via other methods (e.g., derived from diary data, drug accountability data, protocol etc.).  Care should be taken when mapping EXDSTXT to the appropriate SDTM IG variable EXDOSE or EXDOSTXT.  The data collected in this dose text-format field should be separated or mapped to either SDTM IG EXDOSE if numeric or EXDOSTXT if text. This field does not map directly to an SDTM variable.", "mappingInstructions": "Numeric values map to EXDOSE in SDTM.  Non-numeric values (e.g., 200-400) map to EXDOSTXT in SDTM.", "name": "EXDSTXT", "ordinal": "7", "prompt": "Dose", "questionText": "What was the dose per administration?", "simpleDatatype": "Char"}, {"_links": {"codelist": [{"href": "/mdr/root/ct/sdtmct/codelists/C71620", "title": "Version-agnostic anchor resource for codelist C71620", "type": "Root Value Domain"}], "parentDomain": {"href": "/mdr/cdashig/1-1-1/domains/EX", "title": "Exposure", "type": "CDASH Domain"}, "parentProduct": {"href": "/mdr/cdashig/1-1-1", "title": "Clinical Data Acquisition Standards Harmonization (CDASH) User Guide V1.1", "type": "Implementation Guide"}, "rootItem": {"href": "/mdr/root/cdashig/domains/EX/fields/EXDOSU", "title": "Version-agnostic anchor element for field EX.EXDOSU", "type": "Root Data Element"}, "sdtmigDatasetMappingTargets": [{"href": "/mdr/sdtmig/3-1-2/datasets/EX/variables/EXDOSU", "title": "Dose Units", "type": "SDTM Dataset Variable"}], "self": {"href": "/mdr/cdashig/1-1-1/domains/EX/fields/EXDOSU", "type": "Data Collection Field"}}, "completionInstructions": "Record the unit of dose or amount taken per period recorded (e.g., ng, mg, mg/kg).", "core": "R/C", "definition": "Units for EXDOSE.  {UNIT} (See Section 2.2.)", "implementationNotes": "Unit of dose or amount taken per constant dosing interval recorded.  Dose unit must be collected if it cannot be derived via other methods (e.g., derived from protocol, randomization data).  The unit should be pre-printed on the CRF or a field provided on the CRF to capture it.", "name": "EXDOSU", "ordinal": "8", "prompt": "Units", "questionText": "What were the units for the dose?", "simpleDatatype": "Char"}, {"_links": {"parentDomain": {"href": "/mdr/cdashig/1-1-1/domains/EX", "title": "Exposure", "type": "CDASH Domain"}, "parentProduct": {"href": "/mdr/cdashig/1-1-1", "title": "Clinical Data Acquisition Standards Harmonization (CDASH) User Guide V1.1", "type": "Implementation Guide"}, "rootItem": {"href": "/mdr/root/cdashig/domains/EX/fields/EXLOT", "title": "Version-agnostic anchor element for field EX.EXLOT", "type": "Root Data Element"}, "sdtmigDatasetMappingTargets": [{"href": "/mdr/sdtmig/3-1-2/datasets/EX/variables/EXLOT", "title": "Lot Number", "type": "SDTM Dataset Variable"}], "self": {"href": "/mdr/cdashig/1-1-1/domains/EX/fields/EXLOT", "type": "Data Collection Field"}}, "completionInstructions": "Record the lot number that appears on the container holding the study treatment.", "core": "O", "definition": "Lot Number of the EXTRT product.", "implementationNotes": "The Lot Number identifies the manufacturing batch of the study treatment. In open label studies, the reference number on the study treatment container may represent an actual Lot Number and should be submitted using EXLOT.", "name": "EXLOT", "ordinal": "9", "prompt": "Lot Number", "questionText": "What was the lot number of the study treatment used?", "simpleDatatype": "Char"}, {"_links": {"parentDomain": {"href": "/mdr/cdashig/1-1-1/domains/EX", "title": "Exposure", "type": "CDASH Domain"}, "parentProduct": {"href": "/mdr/cdashig/1-1-1", "title": "Clinical Data Acquisition Standards Harmonization (CDASH) User Guide V1.1", "type": "Implementation Guide"}, "rootItem": {"href": "/mdr/root/cdashig/domains/EX/fields/EXTRT", "title": "Version-agnostic anchor element for field EX.EXTRT", "type": "Root Data Element"}, "sdtmigDatasetMappingTargets": [{"href": "/mdr/sdtmig/3-1-2/datasets/EX/variables/EXTRT", "title": "Name of Actual Treatment", "type": "SDTM Dataset Variable"}], "self": {"href": "/mdr/cdashig/1-1-1/domains/EX/fields/EXTRT", "type": "Data Collection Field"}}, "completionInstructions": "Record the name of study treatment.", "core": "R/C", "definition": "Name of the study treatment or intervention given per single administration or during the \"constant dosing interval\" for the observation.", "implementationNotes": "Name of study treatment that was administered to the subject. This is collected for open label studies and derived for blinded studies.  This variable must be populated in the SDTM whether it is collected or derived. *See the BRIDG model for complete path.", "name": "EXTRT", "ordinal": "10", "prompt": "Treatment Name", "questionText": "What was the study treatment?", "simpleDatatype": "Char"}, {"_links": {"codelist": [{"href": "/mdr/root/ct/sdtmct/codelists/C66742", "title": "Version-agnostic anchor resource for codelist C66742", "type": "Root Value Domain"}], "parentDomain": {"href": "/mdr/cdashig/1-1-1/domains/EX", "title": "Exposure", "type": "CDASH Domain"}, "parentProduct": {"href": "/mdr/cdashig/1-1-1", "title": "Clinical Data Acquisition Standards Harmonization (CDASH) User Guide V1.1", "type": "Implementation Guide"}, "rootItem": {"href": "/mdr/root/cdashig/domains/EX/fields/EXDOSADJ", "title": "Version-agnostic anchor element for field EX.EXDOSADJ", "type": "Root Data Element"}, "self": {"href": "/mdr/cdashig/1-1-1/domains/EX/fields/EXDOSADJ", "type": "Data Collection Field"}}, "completionInstructions": "Select either Yes or No to indicate whether there was a change in dosing.", "core": "O", "definition": "Confirmation of dose adjustment. {NY} (See Section 2.2.)", "implementationNotes": "Provides a definitive response regarding dose changes.  This field does not map directly to an SDTM variable.", "mappingInstructions": "This information could be submitted in a SUPPEX dataset.  The value of EXDOSADJ may be used to populate SUPPEX.QVAL where SUPPEX.QNAM = EXDOSADJ", "name": "EXDOSADJ", "ordinal": "11", "prompt": "Adjusted", "questionText": "Was the dose adjusted from planned?", "simpleDatatype": "Char"}, {"_links": {"parentDomain": {"href": "/mdr/cdashig/1-1-1/domains/EX", "title": "Exposure", "type": "CDASH Domain"}, "parentProduct": {"href": "/mdr/cdashig/1-1-1", "title": "Clinical Data Acquisition Standards Harmonization (CDASH) User Guide V1.1", "type": "Implementation Guide"}, "rootItem": {"href": "/mdr/root/cdashig/domains/EX/fields/EXADJ", "title": "Version-agnostic anchor element for field EX.EXADJ", "type": "Root Data Element"}, "sdtmigDatasetMappingTargets": [{"href": "/mdr/sdtmig/3-1-2/datasets/EX/variables/EXADJ", "title": "Reason for Dose Adjustment", "type": "SDTM Dataset Variable"}], "self": {"href": "/mdr/cdashig/1-1-1/domains/EX/fields/EXADJ", "type": "Data Collection Field"}}, "completionInstructions": "If there was a change in dosing, record the reason for change.", "core": "O", "definition": "Describes reason or explanation of why a dose is adjusted - used only when an adjustment is represented in EXPOSURE dataset.  May be used for variations from protocol-specified doses, or changes from expected doses.", "implementationNotes": "Captures reason dose was changed or modified.  The reason may be chosen from a select list (for example, adverse event, insufficient response, etc.) or entered as free text.", "name": "EXADJ", "ordinal": "12", "prompt": "Reason adjusted", "questionText": "What was the reason the dose was adjusted?", "simpleDatatype": "Char"}, {"_links": {"codelist": [{"href": "/mdr/root/ct/sdtmct/codelists/C71113", "title": "Version-agnostic anchor resource for codelist C71113", "type": "Root Value Domain"}], "parentDomain": {"href": "/mdr/cdashig/1-1-1/domains/EX", "title": "Exposure", "type": "CDASH Domain"}, "parentProduct": {"href": "/mdr/cdashig/1-1-1", "title": "Clinical Data Acquisition Standards Harmonization (CDASH) User Guide V1.1", "type": "Implementation Guide"}, "rootItem": {"href": "/mdr/root/cdashig/domains/EX/fields/EXDOSFRQ", "title": "Version-agnostic anchor element for field EX.EXDOSFRQ", "type": "Root Data Element"}, "sdtmigDatasetMappingTargets": [{"href": "/mdr/sdtmig/3-1-2/datasets/EX/variables/EXDOSFRQ", "title": "Dosing Frequency Per Interval", "type": "SDTM Dataset Variable"}], "self": {"href": "/mdr/cdashig/1-1-1/domains/EX/fields/EXDOSFRQ", "type": "Data Collection Field"}}, "completionInstructions": "Record the frequency the study treatment was administered for a defined period of time (e.g., BID, QID, TID).", "core": "R/C", "definition": "Number of doses given per a specific interval.  {FREQ} (See Section 2.2.)", "implementationNotes": "This may be collected if it cannot be derived or if there are multiple options.  Usually expressed as the number of doses given per a specific interval.", "name": "EXDOSFRQ", "ordinal": "13", "prompt": "Frequency", "questionText": "What was the frequency of study treatment dosing?", "simpleDatatype": "Char"}, {"_links": {"codelist": [{"href": "/mdr/root/ct/sdtmct/codelists/C66729", "title": "Version-agnostic anchor resource for codelist C66729", "type": "Root Value Domain"}], "parentDomain": {"href": "/mdr/cdashig/1-1-1/domains/EX", "title": "Exposure", "type": "CDASH Domain"}, "parentProduct": {"href": "/mdr/cdashig/1-1-1", "title": "Clinical Data Acquisition Standards Harmonization (CDASH) User Guide V1.1", "type": "Implementation Guide"}, "rootItem": {"href": "/mdr/root/cdashig/domains/EX/fields/EXROUTE", "title": "Version-agnostic anchor element for field EX.EXROUTE", "type": "Root Data Element"}, "sdtmigDatasetMappingTargets": [{"href": "/mdr/sdtmig/3-1-2/datasets/EX/variables/EXROUTE", "title": "Route of Administration", "type": "SDTM Dataset Variable"}], "self": {"href": "/mdr/cdashig/1-1-1/domains/EX/fields/EXROUTE", "type": "Data Collection Field"}}, "completionInstructions": "Record the route of administration (e.g., IV, ORAL, TRANSDERMAL) or enter the appropriate code from the code list.", "core": "R/C", "definition": "Route of administration for EXTRT.  {ROUTE} (See Section 2.2.)", "implementationNotes": "This may be collected if it cannot be derived or if there are multiple options.  It may also be pre-printed on the CRF or derived from the protocol.", "name": "EXROUTE", "ordinal": "14", "prompt": "Route", "questionText": "What was the route of administration for the study treatment?", "simpleDatatype": "Char"}, {"_links": {"codelist": [{"href": "/mdr/root/ct/sdtmct/codelists/C66726", "title": "Version-agnostic anchor resource for codelist C66726", "type": "Root Value Domain"}], "parentDomain": {"href": "/mdr/cdashig/1-1-1/domains/EX", "title": "Exposure", "type": "CDASH Domain"}, "parentProduct": {"href": "/mdr/cdashig/1-1-1", "title": "Clinical Data Acquisition Standards Harmonization (CDASH) User Guide V1.1", "type": "Implementation Guide"}, "rootItem": {"href": "/mdr/root/cdashig/domains/EX/fields/EXDOSFRM", "title": "Version-agnostic anchor element for field EX.EXDOSFRM", "type": "Root Data Element"}, "sdtmigDatasetMappingTargets": [{"href": "/mdr/sdtmig/3-1-2/datasets/EX/variables/EXDOSFRM", "title": "Dose Form", "type": "SDTM Dataset Variable"}], "self": {"href": "/mdr/cdashig/1-1-1/domains/EX/fields/EXDOSFRM", "type": "Data Collection Field"}}, "completionInstructions": "Record the formulation (e.g., SOLUTION, TABLET, LOTION) or enter the appropriate code from the code list.", "core": "R/C", "definition": "Dose form for EXTRT.  {FRM} (See Section 2.2.)", "implementationNotes": "This must be collected if it cannot be derived or if there are multiple options. *See the BRIDG model for complete path.", "name": "EXDOSFRM", "ordinal": "15", "prompt": "Formulation", "questionText": "What was the formulation of the study treatment?", "simpleDatatype": "Char"}, {"_links": {"parentDomain": {"href": "/mdr/cdashig/1-1-1/domains/EX", "title": "Exposure", "type": "CDASH Domain"}, "parentProduct": {"href": "/mdr/cdashig/1-1-1", "title": "Clinical Data Acquisition Standards Harmonization (CDASH) User Guide V1.1", "type": "Implementation Guide"}, "rootItem": {"href": "/mdr/root/cdashig/domains/EX/fields/EXINTRP", "title": "Version-agnostic anchor element for field EX.EXINTRP", "type": "Root Data Element"}, "self": {"href": "/mdr/cdashig/1-1-1/domains/EX/fields/EXINTRP", "type": "Data Collection Field"}}, "completionInstructions": "Record the duration of treatment interruption.", "core": "O", "definition": "Duration of the treatment interruption.", "implementationNotes": "In some situations, the duration of the interruption may be calculated from the administration start and end times recorded elsewhere in the CRF.  This field does not map directly to an SDTM variable.", "mappingInstructions": "This information could be submitted in a SUPPEX dataset.  The value of EXINTRP may be used to populate SUPPEX.QVAL where SUPPEX.QNAM = EXINTRP", "name": "EXINTRP", "ordinal": "16", "prompt": "Interruption Duration", "questionText": "If the dose was interrupted, how long was the interruption?", "simpleDatatype": "Num"}, {"_links": {"codelist": [{"href": "/mdr/root/ct/sdtmct/codelists/C71620", "title": "Version-agnostic anchor resource for codelist C71620", "type": "Root Value Domain"}], "parentDomain": {"href": "/mdr/cdashig/1-1-1/domains/EX", "title": "Exposure", "type": "CDASH Domain"}, "parentProduct": {"href": "/mdr/cdashig/1-1-1", "title": "Clinical Data Acquisition Standards Harmonization (CDASH) User Guide V1.1", "type": "Implementation Guide"}, "rootItem": {"href": "/mdr/root/cdashig/domains/EX/fields/EXINTRPU", "title": "Version-agnostic anchor element for field EX.EXINTRPU", "type": "Root Data Element"}, "self": {"href": "/mdr/cdashig/1-1-1/domains/EX/fields/EXINTRPU", "type": "Data Collection Field"}}, "completionInstructions": "Record the unit (e.g., MINUTES, HOURS, DAYS) for the duration of treatment interruption.", "core": "O", "definition": "Unit for the duration of treatment interruption.  {UNIT} (See Section 2.2.)", "implementationNotes": "The unit (e.g., MINUTES, HOURS, DAYS) should be collected as a qualifier to the number for duration.  This field does not map directly to an SDTM variable.", "mappingInstructions": "This information could be submitted in a SUPPEX dataset.  The value of EXINTRPU may be used to populate SUPPEX.QVAL where SUPPEX.QNAM = EXINTRPU", "name": "EXINTRPU", "ordinal": "17", "prompt": "<Duration Units>", "questionText": "If the dose was interrupted, what were the units for the duration?", "simpleDatatype": "Char"}, {"_links": {"codelist": [{"href": "/mdr/root/ct/sdtmct/codelists/C74456", "title": "Version-agnostic anchor resource for codelist C74456", "type": "Root Value Domain"}], "parentDomain": {"href": "/mdr/cdashig/1-1-1/domains/EX", "title": "Exposure", "type": "CDASH Domain"}, "parentProduct": {"href": "/mdr/cdashig/1-1-1", "title": "Clinical Data Acquisition Standards Harmonization (CDASH) User Guide V1.1", "type": "Implementation Guide"}, "rootItem": {"href": "/mdr/root/cdashig/domains/EX/fields/EXLOC", "title": "Version-agnostic anchor element for field EX.EXLOC", "type": "Root Data Element"}, "sdtmigDatasetMappingTargets": [{"href": "/mdr/sdtmig/3-1-2/datasets/EX/variables/EXLOC", "title": "Location of Dose Administration", "type": "SDTM Dataset Variable"}], "self": {"href": "/mdr/cdashig/1-1-1/domains/EX/fields/EXLOC", "type": "Data Collection Field"}}, "completionInstructions": "Record the body location where the study treatment was administered (e.g., SHOULDER, HIP, ARM).", "core": "O", "definition": "Specifies anatomical location of administration.  {LOC} (See Section 2.2.)", "implementationNotes": "Location where the study treatment was administered. This may be pre-printed or collected.", "name": "EXLOC", "ordinal": "18", "prompt": "Anatomical Location", "questionText": "What was the anatomical location of the administration?", "simpleDatatype": "Char"}, {"_links": {"parentDomain": {"href": "/mdr/cdashig/1-1-1/domains/EX", "title": "Exposure", "type": "CDASH Domain"}, "parentProduct": {"href": "/mdr/cdashig/1-1-1", "title": "Clinical Data Acquisition Standards Harmonization (CDASH) User Guide V1.1", "type": "Implementation Guide"}, "rootItem": {"href": "/mdr/root/cdashig/domains/EX/fields/EXVAMT", "title": "Version-agnostic anchor element for field EX.EXVAMT", "type": "Root Data Element"}, "sdtmigDatasetMappingTargets": [{"href": "/mdr/sdtmig/3-1-2/datasets/EX/variables/EXVAMT", "title": "Treatment Vehicle Amount", "type": "SDTM Dataset Variable"}], "self": {"href": "/mdr/cdashig/1-1-1/domains/EX/fields/EXVAMT", "type": "Data Collection Field"}}, "completionInstructions": "Record the total amount that was administered/ given to the subject.", "core": "O", "definition": "Total amount of study treatment (drug + vehicle) administered or given to the subject.", "implementationNotes": "Administration amount that was given to the subject.", "name": "EXVAMT", "ordinal": "19", "prompt": "Total Amount", "questionText": "What was the total amount administered?", "simpleDatatype": "Num"}, {"_links": {"codelist": [{"href": "/mdr/root/ct/sdtmct/codelists/C71620", "title": "Version-agnostic anchor resource for codelist C71620", "type": "Root Value Domain"}], "parentDomain": {"href": "/mdr/cdashig/1-1-1/domains/EX", "title": "Exposure", "type": "CDASH Domain"}, "parentProduct": {"href": "/mdr/cdashig/1-1-1", "title": "Clinical Data Acquisition Standards Harmonization (CDASH) User Guide V1.1", "type": "Implementation Guide"}, "rootItem": {"href": "/mdr/root/cdashig/domains/EX/fields/EXVAMTU", "title": "Version-agnostic anchor element for field EX.EXVAMTU", "type": "Root Data Element"}, "sdtmigDatasetMappingTargets": [{"href": "/mdr/sdtmig/3-1-2/datasets/EX/variables/EXVAMTU", "title": "Treatment Vehicle Amount Units", "type": "SDTM Dataset Variable"}], "self": {"href": "/mdr/cdashig/1-1-1/domains/EX/fields/EXVAMTU", "type": "Data Collection Field"}}, "completionInstructions": "Record the unit of total amount administered/ given to the subject (e.g., mL).", "core": "O", "definition": "The unit of measure for the exposure amount.  {UNIT} (See Section 2.2.)", "implementationNotes": "Unit of the administration amount (e.g., mL).", "name": "EXVAMTU", "ordinal": "20", "prompt": "Units", "questionText": "What were the units for the amount administered?", "simpleDatatype": "Char"}, {"_links": {"parentDomain": {"href": "/mdr/cdashig/1-1-1/domains/EX", "title": "Exposure", "type": "CDASH Domain"}, "parentProduct": {"href": "/mdr/cdashig/1-1-1", "title": "Clinical Data Acquisition Standards Harmonization (CDASH) User Guide V1.1", "type": "Implementation Guide"}, "rootItem": {"href": "/mdr/root/cdashig/domains/EX/fields/EXFLRT", "title": "Version-agnostic anchor element for field EX.EXFLRT", "type": "Root Data Element"}, "self": {"href": "/mdr/cdashig/1-1-1/domains/EX/fields/EXFLRT", "type": "Data Collection Field"}}, "completionInstructions": "Record the Rate of Infusion (e.g., if rate is10 mL/min. Record 10as the infusion rate).", "core": "O", "definition": "Rate of infusion.", "implementationNotes": "Infusion rate can be used to derive dose. This field does not map directly to an SDTM variable.", "mappingInstructions": "This information could be submitted in a SUPPEX dataset.  The value of EXFLRT may be used to populate SUPPEX.QVAL where SUPPEX.QNAM = EXFLRT.", "name": "EXFLRT", "ordinal": "21", "prompt": "Infusion Rate", "questionText": "What was the study treatment infusion rate?", "simpleDatatype": "Num"}, {"_links": {"codelist": [{"href": "/mdr/root/ct/sdtmct/codelists/C71620", "title": "Version-agnostic anchor resource for codelist C71620", "type": "Root Value Domain"}], "parentDomain": {"href": "/mdr/cdashig/1-1-1/domains/EX", "title": "Exposure", "type": "CDASH Domain"}, "parentProduct": {"href": "/mdr/cdashig/1-1-1", "title": "Clinical Data Acquisition Standards Harmonization (CDASH) User Guide V1.1", "type": "Implementation Guide"}, "rootItem": {"href": "/mdr/root/cdashig/domains/EX/fields/EXFLRTU", "title": "Version-agnostic anchor element for field EX.EXFLRTU", "type": "Root Data Element"}, "self": {"href": "/mdr/cdashig/1-1-1/domains/EX/fields/EXFLRTU", "type": "Data Collection Field"}}, "completionInstructions": "Record the unit for the infusion rate (e.g., mL/min).", "core": "O", "definition": "The unit of measure for the rate of infusion.  {UNIT} (See Section 2.2.)", "implementationNotes": "Unit of the infusion rate (e.g., mL/min). This field does not map directly to an SDTM variable.", "mappingInstructions": "This information could be submitted in a SUPPEX dataset.  The value of EXFLRT may be used to populate SUPPEX.QVAL where SUPPEX.QNAM = EXFLRTU.", "name": "EXFLRTU", "ordinal": "22", "prompt": "Infusion Rate Units", "questionText": "What were the units for the infusion rate?", "simpleDatatype": "Char"}, {"_links": {"parentDomain": {"href": "/mdr/cdashig/1-1-1/domains/EX", "title": "Exposure", "type": "CDASH Domain"}, "parentProduct": {"href": "/mdr/cdashig/1-1-1", "title": "Clinical Data Acquisition Standards Harmonization (CDASH) User Guide V1.1", "type": "Implementation Guide"}, "rootItem": {"href": "/mdr/root/cdashig/domains/EX/fields/EXTPT", "title": "Version-agnostic anchor element for field EX.EXTPT", "type": "Root Data Element"}, "sdtmigDatasetMappingTargets": [{"href": "/mdr/sdtmig/3-1-2/datasets/EX/variables/EXTPT", "title": "Planned Time Point Name", "type": "SDTM Dataset Variable"}], "self": {"href": "/mdr/cdashig/1-1-1/domains/EX/fields/EXTPT", "type": "Data Collection Field"}}, "completionInstructions": "Record the planned time point of study treatment administration (e.g., 5 minutes post dose).", "core": "O", "definition": "Planned time point name.", "implementationNotes": "Indicates the planned time point of study treatment administration (e.g., 5 minutes post dose).  This may be pre-printed or collected. If the form is laid out as a grid, then words such as Planned Time Point can be included as the column header.", "name": "EXTPT", "ordinal": "23", "prompt": "<Planned Time Point>", "questionText": "What was the planned time point for study treatment?", "simpleDatatype": "Char"}, {"_links": {"codelist": [{"href": "/mdr/root/ct/sdtmct/codelists/C66742", "title": "Version-agnostic anchor resource for codelist C66742", "type": "Root Value Domain"}], "parentDomain": {"href": "/mdr/cdashig/1-1-1/domains/EX", "title": "Exposure", "type": "CDASH Domain"}, "parentProduct": {"href": "/mdr/cdashig/1-1-1", "title": "Clinical Data Acquisition Standards Harmonization (CDASH) User Guide V1.1", "type": "Implementation Guide"}, "rootItem": {"href": "/mdr/root/cdashig/domains/EX/fields/EXTRTCMP", "title": "Version-agnostic anchor element for field EX.EXTRTCMP", "type": "Root Data Element"}, "self": {"href": "/mdr/cdashig/1-1-1/domains/EX/fields/EXTRTCMP", "type": "Data Collection Field"}}, "completionInstructions": "Select either Yes or No to indicate whether subject has completed the full course of treatment.", "core": "O", "definition": "Subject did not did not complete the intended regimen.  {NY} (See Section 2.2.)", "implementationNotes": "Depending on how the study treatment details are collected via the CRF/ eCRF, it may be possible to derive those data if the regimen data are collected. This field does not map directly to an SDTM variable.", "mappingInstructions": "This information could be submitted in a SUPPEX dataset.  The value of EXTRTCMP may be used to populate SUPPEX.QVAL where SUPPEX.QNAM = EXTRTCMP.", "name": "EXTRTCMP", "ordinal": "24", "prompt": "Completed Treatment", "questionText": "Did the subject complete the full course of study treatment?", "simpleDatatype": "Char"}, {"_links": {"parentDomain": {"href": "/mdr/cdashig/1-1-1/domains/EX", "title": "Exposure", "type": "CDASH Domain"}, "parentProduct": {"href": "/mdr/cdashig/1-1-1", "title": "Clinical Data Acquisition Standards Harmonization (CDASH) User Guide V1.1", "type": "Implementation Guide"}, "rootItem": {"href": "/mdr/root/cdashig/domains/EX/fields/EXPDOSE", "title": "Version-agnostic anchor element for field EX.EXPDOSE", "type": "Root Data Element"}, "self": {"href": "/mdr/cdashig/1-1-1/domains/EX/fields/EXPDOSE", "type": "Data Collection Field"}}, "completionInstructions": "Record the dose the subject was scheduled to receive.", "core": "O", "definition": "Intended dose per administration.", "implementationNotes": "It is important that this field be used in conjunction with actual dose EXDSTXT since this field is only intended to capture the planned dose rather than the dose the subject actually received.  This field may be used when it is necessary to capture the intended dose after any and all dose adjustments as described in the protocol for a subject. For example, when subject dosing is based on weight EXPDOSE can be used to capture the dose intended for the subject based on their weight.  The actual dose subject received would be captured in EXDSTXT. It may not be necessary to collect this data when the protocol does not allow/expect any variation between subjects in the intended dose. This field does not map directly to an SDTM variable.", "mappingInstructions": "This information could be submitted in a SUPPEX dataset.  The value of EXPDOSE may be used to populate SUPPEX.QVAL where SUPPEX.QNAM = EXPDOSE.", "name": "EXPDOSE", "ordinal": "25", "prompt": "Planned Dose", "questionText": "What was the planned dose per administration?", "simpleDatatype": "Num"}, {"_links": {"codelist": [{"href": "/mdr/root/ct/sdtmct/codelists/C71620", "title": "Version-agnostic anchor resource for codelist C71620", "type": "Root Value Domain"}], "parentDomain": {"href": "/mdr/cdashig/1-1-1/domains/EX", "title": "Exposure", "type": "CDASH Domain"}, "parentProduct": {"href": "/mdr/cdashig/1-1-1", "title": "Clinical Data Acquisition Standards Harmonization (CDASH) User Guide V1.1", "type": "Implementation Guide"}, "rootItem": {"href": "/mdr/root/cdashig/domains/EX/fields/EXPDOSEU", "title": "Version-agnostic anchor element for field EX.EXPDOSEU", "type": "Root Data Element"}, "self": {"href": "/mdr/cdashig/1-1-1/domains/EX/fields/EXPDOSEU", "type": "Data Collection Field"}}, "completionInstructions": "Record the unit of dose or amount planned per period (e.g., ng, mg, mg/kg).", "core": "O", "definition": "Units for EXPDOSE.  {UNIT} (See Section 2.2.)", "implementationNotes": "It is important that this field be used in conjunction with actual dose EXDOSE and actual dose units EXDOSEU since this field captures the unit of the intended dose rather than the dose the subject actually received.  This field does not map directly to an SDTM variable.", "mappingInstructions": "This information could be submitted in a SUPPEX dataset.  The value of EXPDOSU may be used to populate SUPPEX.QVAL where SUPPEX.QNAM = EXPDOSU.", "name": "EXPDOSEU", "ordinal": "26", "prompt": "Planned Dose Units", "questionText": "What were the units for the planned dose?", "simpleDatatype": "Char"}, {"_links": {"codelist": [{"href": "/mdr/root/ct/sdtmct/codelists/C66742", "title": "Version-agnostic anchor resource for codelist C66742", "type": "Root Value Domain"}], "parentDomain": {"href": "/mdr/cdashig/1-1-1/domains/EX", "title": "Exposure", "type": "CDASH Domain"}, "parentProduct": {"href": "/mdr/cdashig/1-1-1", "title": "Clinical Data Acquisition Standards Harmonization (CDASH) User Guide V1.1", "type": "Implementation Guide"}, "rootItem": {"href": "/mdr/root/cdashig/domains/EX/fields/EXPOCCUR", "title": "Version-agnostic anchor element for field EX.EXPOCCUR", "type": "Root Data Element"}, "self": {"href": "/mdr/cdashig/1-1-1/domains/EX/fields/EXPOCCUR", "type": "Data Collection Field"}}, "completionInstructions": "Record whether the planned dose was administered", "core": "O", "definition": "Indicator that the planned dose was administered. {NY} (See Section 2.2.)", "implementationNotes": "This field is used to indicate whether the planned dose recorded in EXPDOSE and EXPDOSEU was administered to the subject. If the answer is Y, EXTRT may be derived from EXPDOSE.  If the answer is N, the actual dose may be recorded in EXTRT, or a reason for no dosing may be recorded in an EXREASND field. *See the BRIDG model for complete path.", "mappingInstructions": "This information could be submitted in a SUPPEX dataset.  The value of EXPOCCURbe used to populate SUPPEX.QVAL where SUPPEX.QNAM = EXPOCCUR.", "name": "EXPOCCUR", "ordinal": "27", "prompt": "Planned dose administered?", "questionText": "Was the planned dose administered?", "simpleDatatype": "Char"}, {"_links": {"parentDomain": {"href": "/mdr/cdashig/1-1-1/domains/EX", "title": "Exposure", "type": "CDASH Domain"}, "parentProduct": {"href": "/mdr/cdashig/1-1-1", "title": "Clinical Data Acquisition Standards Harmonization (CDASH) User Guide V1.1", "type": "Implementation Guide"}, "rootItem": {"href": "/mdr/root/cdashig/domains/EX/fields/SPONSOR", "title": "Version-agnostic anchor element for field EX.SPONSOR", "type": "Root Data Element"}, "self": {"href": "/mdr/cdashig/1-1-1/domains/EX/fields/SPONSOR", "type": "Data Collection Field"}}, "completionInstructions": "Not applicable", "core": "O", "definition": "A unique identifier for a study sponsor.  An individual, company, institution, or organization that takes responsibility for the initiation and management of a clinical trial, although may or may not be the main funding organization.  If there is also a secondary sponsor, this entity would be considered the primary sponsor. A corporation or agency whose employees conduct the investigation is considered a sponsor and the employees are considered investigators.", "implementationNotes": "This is typically pre-printed. It may be used as an identifier in external data warehouses (e.g. Janus) and in electronic medical records or other partnerships for sharing data. This field does not map directly to an SDTM variable. *See the BRIDG model for complete path.", "name": "SPONSOR", "ordinal": "101", "prompt": "Sponsor", "questionText": "What is the sponsor identifier?", "simpleDatatype": "Char"}, {"_links": {"parentDomain": {"href": "/mdr/cdashig/1-1-1/domains/EX", "title": "Exposure", "type": "CDASH Domain"}, "parentProduct": {"href": "/mdr/cdashig/1-1-1", "title": "Clinical Data Acquisition Standards Harmonization (CDASH) User Guide V1.1", "type": "Implementation Guide"}, "rootItem": {"href": "/mdr/root/cdashig/domains/EX/fields/STUDYID", "title": "Version-agnostic anchor element for field EX.STUDYID", "type": "Root Data Element"}, "sdtmigDatasetMappingTargets": [{"href": "/mdr/sdtmig/3-1-2/datasets/EX/variables/STUDYID", "title": "Study Identifier", "type": "SDTM Dataset Variable"}], "self": {"href": "/mdr/cdashig/1-1-1/domains/EX/fields/STUDYID", "type": "Data Collection Field"}}, "completionInstructions": "Not applicable.", "core": "HR", "definition": "Unique identifier for a study.", "implementationNotes": "This is typically pre-printed/pre-populated. *See the BRIDG model for complete path.", "name": "STUDYID", "ordinal": "102", "prompt": "Protocol or Study", "questionText": "What is the study identifier?", "simpleDatatype": "Char"}, {"_links": {"parentDomain": {"href": "/mdr/cdashig/1-1-1/domains/EX", "title": "Exposure", "type": "CDASH Domain"}, "parentProduct": {"href": "/mdr/cdashig/1-1-1", "title": "Clinical Data Acquisition Standards Harmonization (CDASH) User Guide V1.1", "type": "Implementation Guide"}, "rootItem": {"href": "/mdr/root/cdashig/domains/EX/fields/SITEID", "title": "Version-agnostic anchor element for field EX.SITEID", "type": "Root Data Element"}, "sdtmigDatasetMappingTargets": [{"href": "/mdr/sdtmig/3-1-2/datasets/DM/variables/SITEID", "title": "Study Site Identifier", "type": "SDTM Dataset Variable"}], "self": {"href": "/mdr/cdashig/1-1-1/domains/EX/fields/SITEID", "type": "Data Collection Field"}}, "completionInstructions": "Record your clinical site's identifier as defined by the sponsor.", "core": "HR", "definition": "Unique identifier for a site within a study.", "implementationNotes": "Paper: This is typically pre-printed in the header of each CRF page for single site studies.  For studies with multiple sites, this field is typically left blank so that the number can be recorded by the site. EDC: This should be pre-populated. SITENO has been deprecated in CDASH v1.1 and should no longer be used, because SDTM IG V3.1.2 has changed the SITEID variable definition to require uniqueness only within a study, and not within the submission.", "name": "SITEID", "ordinal": "103", "prompt": "Site", "questionText": "What is the site identifier?", "simpleDatatype": "Char"}, {"_links": {"parentDomain": {"href": "/mdr/cdashig/1-1-1/domains/EX", "title": "Exposure", "type": "CDASH Domain"}, "parentProduct": {"href": "/mdr/cdashig/1-1-1", "title": "Clinical Data Acquisition Standards Harmonization (CDASH) User Guide V1.1", "type": "Implementation Guide"}, "rootItem": {"href": "/mdr/root/cdashig/domains/EX/fields/SUBJID", "title": "Version-agnostic anchor element for field EX.SUBJID", "type": "Root Data Element"}, "sdtmigDatasetMappingTargets": [{"href": "/mdr/sdtmig/3-1-2/datasets/DM/variables/SUBJID", "title": "Subject Identifier for the Study", "type": "SDTM Dataset Variable"}], "self": {"href": "/mdr/cdashig/1-1-1/domains/EX/fields/SUBJID", "type": "Data Collection Field"}}, "completionInstructions": "Record the identifier for the subject.", "core": "HR", "definition": "Identifier assigned to each trial subject to protect the subject's identity, and used instead of the subject's name when the Investigator reports trial data.", "implementationNotes": "Paper: This is typically recorded in the header of each CRF page. EDC: The subject identifiers may be provided to the site using a pre-populated list in the system.", "name": "SUBJID", "ordinal": "104", "prompt": "Subject", "questionText": "What is the subject identifier?", "simpleDatatype": "Char"}, {"_links": {"parentDomain": {"href": "/mdr/cdashig/1-1-1/domains/EX", "title": "Exposure", "type": "CDASH Domain"}, "parentProduct": {"href": "/mdr/cdashig/1-1-1", "title": "Clinical Data Acquisition Standards Harmonization (CDASH) User Guide V1.1", "type": "Implementation Guide"}, "rootItem": {"href": "/mdr/root/cdashig/domains/EX/fields/USUBJID", "title": "Version-agnostic anchor element for field EX.USUBJID", "type": "Root Data Element"}, "sdtmigDatasetMappingTargets": [{"href": "/mdr/sdtmig/3-1-2/datasets/EX/variables/USUBJID", "title": "Unique Subject Identifier", "type": "SDTM Dataset Variable"}], "self": {"href": "/mdr/cdashig/1-1-1/domains/EX/fields/USUBJID", "type": "Data Collection Field"}}, "completionInstructions": "Not applicable.", "core": "O", "definition": "Identifier used to uniquely identify a subject across all studies or all applications or submissions involving the product.", "implementationNotes": "While in SDTM this is a Required variable for all subjects, in CDASH it may be used to record prospectively the identifier for subjects who are in multiple studies within a clinical program. Rarely collected on the CRF. When a subject participated in more than one study or site within a development program, SDTM requires identification of the individual uniquely through this study-shared subject identifier.", "name": "USUBJID", "ordinal": "105", "prompt": "Unique Subject ID", "questionText": "For this multi-study subject, what is the unique subject identifier?", "simpleDatatype": "Char"}, {"_links": {"parentDomain": {"href": "/mdr/cdashig/1-1-1/domains/EX", "title": "Exposure", "type": "CDASH Domain"}, "parentProduct": {"href": "/mdr/cdashig/1-1-1", "title": "Clinical Data Acquisition Standards Harmonization (CDASH) User Guide V1.1", "type": "Implementation Guide"}, "rootItem": {"href": "/mdr/root/cdashig/domains/EX/fields/INVID", "title": "Version-agnostic anchor element for field EX.INVID", "type": "Root Data Element"}, "sdtmigDatasetMappingTargets": [{"href": "/mdr/sdtmig/3-1-2/datasets/DM/variables/INVID", "title": "Investigator Identifier", "type": "SDTM Dataset Variable"}], "self": {"href": "/mdr/cdashig/1-1-1/domains/EX/fields/INVID", "type": "Data Collection Field"}}, "completionInstructions": "Record the sponsor-defined identifier for your site investigator.", "core": "O", "definition": "A unique identifier assigned to an Investigator.", "implementationNotes": "If an investigator is associated with more than one site or the site has more than one investigator, it may be necessary to collect this information.  However, if there is only one investigator at each site, this may be equivalent to SITEID, and would not be necessary to collect.", "name": "INVID", "ordinal": "106", "prompt": "Investigator", "questionText": "What is the investigator identifier?", "simpleDatatype": "Char"}, {"_links": {"parentDomain": {"href": "/mdr/cdashig/1-1-1/domains/EX", "title": "Exposure", "type": "CDASH Domain"}, "parentProduct": {"href": "/mdr/cdashig/1-1-1", "title": "Clinical Data Acquisition Standards Harmonization (CDASH) User Guide V1.1", "type": "Implementation Guide"}, "rootItem": {"href": "/mdr/root/cdashig/domains/EX/fields/VISIT", "title": "Version-agnostic anchor element for field EX.VISIT", "type": "Root Data Element"}, "sdtmClassMappingTargets": [{"href": "/mdr/sdtm/1-2/classes/GeneralObservations/variables/VISIT", "title": "Visit Name", "type": "Class Variable"}], "self": {"href": "/mdr/cdashig/1-1-1/domains/EX/fields/VISIT", "type": "Data Collection Field"}}, "completionInstructions": "When applicable (e.g., on paper CRFs), record the visit name.", "core": "O", "definition": "A clinical encounter that encompasses planned and unplanned trial inventions, procedures, and assessments that may be performed on a subject.", "implementationNotes": "This is typically pre-printed/pre-populated.*See the BRIDG model for complete path.", "name": "VISIT", "ordinal": "301", "prompt": "Visit", "questionText": "What is the visit name?", "simpleDatatype": "Char"}, {"_links": {"parentDomain": {"href": "/mdr/cdashig/1-1-1/domains/EX", "title": "Exposure", "type": "CDASH Domain"}, "parentProduct": {"href": "/mdr/cdashig/1-1-1", "title": "Clinical Data Acquisition Standards Harmonization (CDASH) User Guide V1.1", "type": "Implementation Guide"}, "rootItem": {"href": "/mdr/root/cdashig/domains/EX/fields/VISITNUM", "title": "Version-agnostic anchor element for field EX.VISITNUM", "type": "Root Data Element"}, "sdtmClassMappingTargets": [{"href": "/mdr/sdtm/1-2/classes/GeneralObservations/variables/VISITNUM", "title": "Visit Number", "type": "Class Variable"}], "self": {"href": "/mdr/cdashig/1-1-1/domains/EX/fields/VISITNUM", "type": "Data Collection Field"}}, "completionInstructions": "When applicable (e.g., on paper CRFs), record the visit number.", "core": "O", "definition": "A number assigned to a clinical encounter.", "implementationNotes": "This is typically pre-printed/pre-populated. A visit number may be used to represent the chronological order of the clinical encounters.", "name": "VISITNUM", "ordinal": "302", "prompt": "Visit Number", "questionText": "What is the visit number?", "simpleDatatype": "Num"}, {"_links": {"parentDomain": {"href": "/mdr/cdashig/1-1-1/domains/EX", "title": "Exposure", "type": "CDASH Domain"}, "parentProduct": {"href": "/mdr/cdashig/1-1-1", "title": "Clinical Data Acquisition Standards Harmonization (CDASH) User Guide V1.1", "type": "Implementation Guide"}, "rootItem": {"href": "/mdr/root/cdashig/domains/EX/fields/VISDAT", "title": "Version-agnostic anchor element for field EX.VISDAT", "type": "Root Data Element"}, "self": {"href": "/mdr/cdashig/1-1-1/domains/EX/fields/VISDAT", "type": "Data Collection Field"}}, "completionInstructions": "Record the date the visit took place or started in this format (DD-MON-YYYY).", "core": "R/C", "definition": "Date the clinical encounter occurred (or started).", "implementationNotes": "If the data being collected are visit-based, a date should be collected some way.  This may be done once for the visit using VISDAT or may be done at the CRF level using the domain-specific --DAT field. This may be recorded in either the header of the CRF or in the body of the CRF. This field does not map directly to an SDTM variable.*See the BRIDG model for complete path.", "name": "VISDAT", "ordinal": "303", "prompt": "Visit Date", "questionText": "What is the visit date?", "simpleDatatype": "Date (dd-MON-yyyy)"}], "label": "Exposure", "name": "EX", "ordinal": "9"}, {"_links": {"parentClass": {"href": "/mdr/cdashig/1-1-1/classes/Interventions", "title": "Interventions Observation Class", "type": "Class"}, "parentProduct": {"href": "/mdr/cdashig/1-1-1", "title": "Clinical Data Acquisition Standards Harmonization (CDASH) User Guide V1.1", "type": "Implementation Guide"}, "self": {"href": "/mdr/cdashig/1-1-1/domains/SU", "title": "Substance Use", "type": "CDASH Domain"}}, "fields": [{"_links": {"parentDomain": {"href": "/mdr/cdashig/1-1-1/domains/SU", "title": "Substance Use", "type": "CDASH Domain"}, "parentProduct": {"href": "/mdr/cdashig/1-1-1", "title": "Clinical Data Acquisition Standards Harmonization (CDASH) User Guide V1.1", "type": "Implementation Guide"}, "rootItem": {"href": "/mdr/root/cdashig/domains/SU/fields/SUTRT", "title": "Version-agnostic anchor element for field SU.SUTRT", "type": "Root Data Element"}, "sdtmigDatasetMappingTargets": [{"href": "/mdr/sdtmig/3-1-2/datasets/SU/variables/SUTRT", "title": "Reported Name of Substance", "type": "SDTM Dataset Variable"}], "self": {"href": "/mdr/cdashig/1-1-1/domains/SU/fields/SUTRT", "type": "Data Collection Field"}}, "completionInstructions": "Not applicable.", "core": "HR", "definition": "The type of substance (e.g., TOBACCO, ALCOHOL, CAFFEINE or CIGARETTES, CIGARS, COFFEE)", "implementationNotes": "Sponsors may require different types of substance use data (e.g., illicit drug use, cigarettes, etc.); the value for category may be pre-printed on the CRF as a label for the prompt for Substance Use. If a more detailed type of substance appears on the CRF (e.g., CIGARETTES, CIGARS, rather than TOBACCO), SUCAT should be TOBACCO and SUTRT should be CIGARETTES.  If the sponsor does not specify a type of tobacco on the CRF, SUTRT should be TOBACCO. *See the BRIDG model for complete path.", "name": "SUTRT", "ordinal": "1", "prompt": "<Type of Substance>", "questionText": "What was the type of substance used?", "simpleDatatype": "Char"}, {"_links": {"codelist": [{"href": "/mdr/root/ct/sdtmct/codelists/C78738", "title": "Version-agnostic anchor resource for codelist C78738", "type": "Root Value Domain"}], "parentDomain": {"href": "/mdr/cdashig/1-1-1/domains/SU", "title": "Substance Use", "type": "CDASH Domain"}, "parentProduct": {"href": "/mdr/cdashig/1-1-1", "title": "Clinical Data Acquisition Standards Harmonization (CDASH) User Guide V1.1", "type": "Implementation Guide"}, "rootItem": {"href": "/mdr/root/cdashig/domains/SU/fields/SUNCF", "title": "Version-agnostic anchor element for field SU.SUNCF", "type": "Root Data Element"}, "sdtmigDatasetMappingTargets": [{"href": "/mdr/sdtmig/3-1-2/datasets/SU/variables/SUOCCUR", "title": "SU Occurrence", "type": "SDTM Dataset Variable"}], "self": {"href": "/mdr/cdashig/1-1-1/domains/SU/fields/SUNCF", "type": "Data Collection Field"}}, "completionInstructions": "Check the appropriate box to indicate if the subject has ever used/consumed tobacco/alcohol/caffeine, currently consumes tobacco/alcohol/caffeine, or formerly used/consumed tobacco/alcohol/caffeine.", "core": "HR", "definition": "Substance Use Occurrence. {NCF} (See Section 2.2)", "implementationNotes": "The three options, NEVER, CURRENT and FORMER should be sponsor-defined in relation to the protocol.  If the sponsor has specific definitions for the three, these definitions should be detailed in the instructions to the site.  As this type of response does not correspond exactly to an SDTM IG variable, CDASH recommends using SUNCF as the variable name in the clinical database. The SDTM variable SUOCCUR may be determined from SUNCF.  See SDTM IG v3.1.2 Section 6.1.3.2 for more details. This field does not map directly to an SDTM variable.", "mappingInstructions": "May be used to derive a value into the SDTM variable SUOCCUR.  If SUNCF = 'Never', the value of SUOCCUR will be 'N'.  If SUNCF = 'Current' or 'Former', the value of SUOCCUR will be 'Y'.", "name": "SUNCF", "ordinal": "2", "prompt": "Usage", "questionText": "Has the subject ever used the substance?", "simpleDatatype": "Char"}, {"_links": {"parentDomain": {"href": "/mdr/cdashig/1-1-1/domains/SU", "title": "Substance Use", "type": "CDASH Domain"}, "parentProduct": {"href": "/mdr/cdashig/1-1-1", "title": "Clinical Data Acquisition Standards Harmonization (CDASH) User Guide V1.1", "type": "Implementation Guide"}, "rootItem": {"href": "/mdr/root/cdashig/domains/SU/fields/SUCAT", "title": "Version-agnostic anchor element for field SU.SUCAT", "type": "Root Data Element"}, "sdtmigDatasetMappingTargets": [{"href": "/mdr/sdtmig/3-1-2/datasets/SU/variables/SUCAT", "title": "Category for Substance Use", "type": "SDTM Dataset Variable"}], "self": {"href": "/mdr/cdashig/1-1-1/domains/SU/fields/SUCAT", "type": "Data Collection Field"}}, "completionInstructions": "Not applicable.", "core": "O", "definition": "Used to define a category of related records (e.g., TOBACCO, ALCOHOL, CAFFEINE).", "implementationNotes": "Sponsors may require different types of substance use data (e.g., illicit drug use, cigarettes, etc.); the value for category may be pre-printed on the CRF as a label for the Prompt for Substance Use. If a more detailed type of substance appears on the CRF (e.g., CIGARETTES, CIGARS, rather than TOBACCO), SUCAT should be TOBACCO and SUTRT should be CIGARETTES.  If the sponsor does not specify a type of tobacco on the CRF, SUTRT should be TOBACCO. *See the BRIDG model for complete path.", "name": "SUCAT", "ordinal": "3", "prompt": "<Substance Category>", "questionText": "What was the category of substance used?", "simpleDatatype": "Char"}, {"_links": {"parentDomain": {"href": "/mdr/cdashig/1-1-1/domains/SU", "title": "Substance Use", "type": "CDASH Domain"}, "parentProduct": {"href": "/mdr/cdashig/1-1-1", "title": "Clinical Data Acquisition Standards Harmonization (CDASH) User Guide V1.1", "type": "Implementation Guide"}, "rootItem": {"href": "/mdr/root/cdashig/domains/SU/fields/SUDSTXT", "title": "Version-agnostic anchor element for field SU.SUDSTXT", "type": "Root Data Element"}, "sdtmigDatasetMappingTargets": [{"href": "/mdr/sdtmig/3-1-2/datasets/SU/variables/SUDOSE", "title": "Substance Use Consumption", "type": "SDTM Dataset Variable"}, {"href": "/mdr/sdtmig/3-1-2/datasets/SU/variables/SUDOSTXT", "title": "Substance Use Consumption Text", "type": "SDTM Dataset Variable"}], "self": {"href": "/mdr/cdashig/1-1-1/domains/SU/fields/SUDSTXT", "type": "Data Collection Field"}}, "completionInstructions": "Check the appropriate box to indicate the amount of tobacco/alcohol/caffeine the subject consumes on a regular basis.", "core": "O", "definition": "The amount of substance used [e.g., 1-2 (packs), 8 (ounces)].", "implementationNotes": "Where possible, the options for dose/amount should be pre-printed on the CRF.  In the example given in the Definition, (packs) and (ounces) have been included as a point of reference.  They would, of course, be submitted as SUDOSU. Care should be taken to map each record to the appropriate SDTM variable SUDOSTXT (text results that can't be represented in a numeric field) and SUDOSE (numeric results). This field does not map directly to an SDTM variable.", "mappingInstructions": "Numeric values map to SUDOSE in SDTM.  Non-numeric values (e.g., 200-400) map to SUDOSTXT in SDTM.", "name": "SUDSTXT", "ordinal": "4", "prompt": "Amount", "questionText": "What was the amount of substance used?", "simpleDatatype": "Char"}, {"_links": {"codelist": [{"href": "/mdr/root/ct/sdtmct/codelists/C71620", "title": "Version-agnostic anchor resource for codelist C71620", "type": "Root Value Domain"}], "parentDomain": {"href": "/mdr/cdashig/1-1-1/domains/SU", "title": "Substance Use", "type": "CDASH Domain"}, "parentProduct": {"href": "/mdr/cdashig/1-1-1", "title": "Clinical Data Acquisition Standards Harmonization (CDASH) User Guide V1.1", "type": "Implementation Guide"}, "rootItem": {"href": "/mdr/root/cdashig/domains/SU/fields/SUDOSU", "title": "Version-agnostic anchor element for field SU.SUDOSU", "type": "Root Data Element"}, "sdtmigDatasetMappingTargets": [{"href": "/mdr/sdtmig/3-1-2/datasets/SU/variables/SUDOSU", "title": "Consumption Units", "type": "SDTM Dataset Variable"}], "self": {"href": "/mdr/cdashig/1-1-1/domains/SU/fields/SUDOSU", "type": "Data Collection Field"}}, "completionInstructions": "Not applicable.", "core": "O", "definition": "Units for SUDOSTXT (e.g., PACKS, OUNCES). {UNIT} See Section 2.2.", "implementationNotes": "Where possible, the options for dose/amount units should be pre-printed on the CRF. *See the BRIDG model for complete path.", "name": "SUDOSU", "ordinal": "5", "prompt": "Unit", "questionText": "What was the unit of the substance used?", "simpleDatatype": "Char"}, {"_links": {"parentDomain": {"href": "/mdr/cdashig/1-1-1/domains/SU", "title": "Substance Use", "type": "CDASH Domain"}, "parentProduct": {"href": "/mdr/cdashig/1-1-1", "title": "Clinical Data Acquisition Standards Harmonization (CDASH) User Guide V1.1", "type": "Implementation Guide"}, "rootItem": {"href": "/mdr/root/cdashig/domains/SU/fields/SUDOSFRQ", "title": "Version-agnostic anchor element for field SU.SUDOSFRQ", "type": "Root Data Element"}, "sdtmigDatasetMappingTargets": [{"href": "/mdr/sdtmig/3-1-2/datasets/SU/variables/SUDOSFRQ", "title": "Use Frequency Per Interval", "type": "SDTM Dataset Variable"}], "self": {"href": "/mdr/cdashig/1-1-1/domains/SU/fields/SUDOSFRQ", "type": "Data Collection Field"}}, "completionInstructions": "Not applicable.", "core": "O", "definition": "Usually expressed as the number of uses consumed per a specific interval (e.g., PER DAY, PER WEEK, OCCASIONAL).", "implementationNotes": "Where possible, the options for dose/amount frequency should be pre-printed on the CRF. *See the BRIDG model for complete path.", "name": "SUDOSFRQ", "ordinal": "6", "prompt": "Frequency", "questionText": "What was the frequency of substance use?", "simpleDatatype": "Char"}, {"_links": {"parentDomain": {"href": "/mdr/cdashig/1-1-1/domains/SU", "title": "Substance Use", "type": "CDASH Domain"}, "parentProduct": {"href": "/mdr/cdashig/1-1-1", "title": "Clinical Data Acquisition Standards Harmonization (CDASH) User Guide V1.1", "type": "Implementation Guide"}, "rootItem": {"href": "/mdr/root/cdashig/domains/SU/fields/SUSTDAT", "title": "Version-agnostic anchor element for field SU.SUSTDAT", "type": "Root Data Element"}, "sdtmigDatasetMappingTargets": [{"href": "/mdr/sdtmig/3-1-2/datasets/SU/variables/SUSTDTC", "title": "Start Date/Time of Substance Use", "type": "SDTM Dataset Variable"}], "self": {"href": "/mdr/cdashig/1-1-1/domains/SU/fields/SUSTDAT", "type": "Data Collection Field"}}, "completionInstructions": "Record the start date using this format (DD-MON-YYYY).", "core": "O", "definition": "Date substance use started.", "implementationNotes": "The sponsor may choose to capture a complete date or any variation thereof (e.g., month & year or year, etc.).  For the SDTM-based dataset, the SDTM IG variable SUSTDTC is derived by concatenating CDASH Start Date (SUSTDAT) into SUSTDTC using the ISO 8601 format. For more details see Best Practice Recommendations. This field does not map directly to an SDTM variable. *See the BRIDG model for complete path.", "mappingInstructions": "For the SDTM dataset, the SDTM variable --STDTC is derived by concatenating CDASH Start Date and Time (if time is applicable) into --STDTC using the ISO 8601 format.", "name": "SUSTDAT", "ordinal": "7", "prompt": "Start Date", "questionText": "What was the start date of substance use?", "simpleDatatype": "Date (dd-MON-yyyy)"}, {"_links": {"parentDomain": {"href": "/mdr/cdashig/1-1-1/domains/SU", "title": "Substance Use", "type": "CDASH Domain"}, "parentProduct": {"href": "/mdr/cdashig/1-1-1", "title": "Clinical Data Acquisition Standards Harmonization (CDASH) User Guide V1.1", "type": "Implementation Guide"}, "rootItem": {"href": "/mdr/root/cdashig/domains/SU/fields/SUENDAT", "title": "Version-agnostic anchor element for field SU.SUENDAT", "type": "Root Data Element"}, "sdtmigDatasetMappingTargets": [{"href": "/mdr/sdtmig/3-1-2/datasets/SU/variables/SUENDTC", "title": "End Date/Time of Substance Use", "type": "SDTM Dataset Variable"}], "self": {"href": "/mdr/cdashig/1-1-1/domains/SU/fields/SUENDAT", "type": "Data Collection Field"}}, "completionInstructions": "Record the end date using this format (DD-MON-YYYY).", "core": "O", "definition": "Date substance use ended.", "implementationNotes": "The sponsor may choose to capture a complete date or any variation thereof (e.g., month & year or year, etc.).  For more details see Best Practice Recommendations. This field does not map directly to an SDTM variable. *See the BRIDG model for complete path.", "mappingInstructions": "For the SDTM dataset, the SDTM variable --ENDTC is derived by concatenating CDASH End Date and Time (if time is applicable) into --ENDTC using the ISO 8601 format.", "name": "SUENDAT", "ordinal": "8", "prompt": "End date", "questionText": "What was the end date of substance use?", "simpleDatatype": "Date (dd-MON-yyyy)"}, {"_links": {"parentDomain": {"href": "/mdr/cdashig/1-1-1/domains/SU", "title": "Substance Use", "type": "CDASH Domain"}, "parentProduct": {"href": "/mdr/cdashig/1-1-1", "title": "Clinical Data Acquisition Standards Harmonization (CDASH) User Guide V1.1", "type": "Implementation Guide"}, "rootItem": {"href": "/mdr/root/cdashig/domains/SU/fields/SUCDUR", "title": "Version-agnostic anchor element for field SU.SUCDUR", "type": "Root Data Element"}, "sdtmigDatasetMappingTargets": [{"href": "/mdr/sdtmig/3-1-2/datasets/SU/variables/SUDUR", "title": "Duration of Substance Use", "type": "SDTM Dataset Variable"}], "self": {"href": "/mdr/cdashig/1-1-1/domains/SU/fields/SUCDUR", "type": "Data Collection Field"}}, "completionInstructions": "Provide the duration of the Substance Abuse (e.g., Record how long the subject has smoked).", "core": "O", "definition": "The duration of the substance use.", "implementationNotes": "This should only be collected on the CRF if this level of detail is needed and if SUSTDAT & SUENDAT are not collected on the CRF.  For the SDTM-based dataset, the SDTMIG variable SUDUR can be derived from the CDASH Duration and Duration Units variables. This field does not map directly to an SDTM variable.", "mappingInstructions": "For the SDTM dataset, the SDTM variable SUDUR is derived by concatenating the CDASH SUCDUR and SUCDURU variables.", "name": "SUCDUR", "ordinal": "9", "prompt": "Duration", "questionText": "What was the duration of substance use?", "simpleDatatype": "Num"}, {"_links": {"parentDomain": {"href": "/mdr/cdashig/1-1-1/domains/SU", "title": "Substance Use", "type": "CDASH Domain"}, "parentProduct": {"href": "/mdr/cdashig/1-1-1", "title": "Clinical Data Acquisition Standards Harmonization (CDASH) User Guide V1.1", "type": "Implementation Guide"}, "rootItem": {"href": "/mdr/root/cdashig/domains/SU/fields/SUCDURU", "title": "Version-agnostic anchor element for field SU.SUCDURU", "type": "Root Data Element"}, "sdtmigDatasetMappingTargets": [{"href": "/mdr/sdtmig/3-1-2/datasets/SU/variables/SUDUR", "title": "Duration of Substance Use", "type": "SDTM Dataset Variable"}], "self": {"href": "/mdr/cdashig/1-1-1/domains/SU/fields/SUCDURU", "type": "Data Collection Field"}}, "completionInstructions": "Not applicable.", "core": "O", "definition": "Units for SUCDUR (e.g., WEEKS, MONTHS, YEARS).", "implementationNotes": "The sponsor-defined options (e.g., WEEKS, MONTHS, YEARS, etc.) should be pre-printed on the CRF to avoid making this a free text field.  This will allow the response to be translated into ISO 8601 format.  For the SDTM-based dataset, the SDTM IG variable SUDUR can be derived by concatenating the CDASH duration and duration unit's variables. This field does not map directly to an SDTM variable. *See the BRIDG model for complete path.", "mappingInstructions": "For the SDTM dataset, the SDTM variable SUDUR is derived by concatenating the CDASH SUCDUR and SUCDURU variables.", "name": "SUCDURU", "ordinal": "10", "prompt": "<Duration Unit>", "questionText": "What was the unit of duration of substance use?", "simpleDatatype": "Char"}, {"_links": {"parentDomain": {"href": "/mdr/cdashig/1-1-1/domains/SU", "title": "Substance Use", "type": "CDASH Domain"}, "parentProduct": {"href": "/mdr/cdashig/1-1-1", "title": "Clinical Data Acquisition Standards Harmonization (CDASH) User Guide V1.1", "type": "Implementation Guide"}, "rootItem": {"href": "/mdr/root/cdashig/domains/SU/fields/SPONSOR", "title": "Version-agnostic anchor element for field SU.SPONSOR", "type": "Root Data Element"}, "self": {"href": "/mdr/cdashig/1-1-1/domains/SU/fields/SPONSOR", "type": "Data Collection Field"}}, "completionInstructions": "Not applicable", "core": "O", "definition": "A unique identifier for a study sponsor.  An individual, company, institution, or organization that takes responsibility for the initiation and management of a clinical trial, although may or may not be the main funding organization.  If there is also a secondary sponsor, this entity would be considered the primary sponsor. A corporation or agency whose employees conduct the investigation is considered a sponsor and the employees are considered investigators.", "implementationNotes": "This is typically pre-printed. It may be used as an identifier in external data warehouses (e.g. Janus) and in electronic medical records or other partnerships for sharing data. This field does not map directly to an SDTM variable. *See the BRIDG model for complete path.", "name": "SPONSOR", "ordinal": "101", "prompt": "Sponsor", "questionText": "What is the sponsor identifier?", "simpleDatatype": "Char"}, {"_links": {"parentDomain": {"href": "/mdr/cdashig/1-1-1/domains/SU", "title": "Substance Use", "type": "CDASH Domain"}, "parentProduct": {"href": "/mdr/cdashig/1-1-1", "title": "Clinical Data Acquisition Standards Harmonization (CDASH) User Guide V1.1", "type": "Implementation Guide"}, "rootItem": {"href": "/mdr/root/cdashig/domains/SU/fields/STUDYID", "title": "Version-agnostic anchor element for field SU.STUDYID", "type": "Root Data Element"}, "sdtmigDatasetMappingTargets": [{"href": "/mdr/sdtmig/3-1-2/datasets/SU/variables/STUDYID", "title": "Study Identifier", "type": "SDTM Dataset Variable"}], "self": {"href": "/mdr/cdashig/1-1-1/domains/SU/fields/STUDYID", "type": "Data Collection Field"}}, "completionInstructions": "Not applicable.", "core": "HR", "definition": "Unique identifier for a study.", "implementationNotes": "This is typically pre-printed/pre-populated. *See the BRIDG model for complete path.", "name": "STUDYID", "ordinal": "102", "prompt": "Protocol or Study", "questionText": "What is the study identifier?", "simpleDatatype": "Char"}, {"_links": {"parentDomain": {"href": "/mdr/cdashig/1-1-1/domains/SU", "title": "Substance Use", "type": "CDASH Domain"}, "parentProduct": {"href": "/mdr/cdashig/1-1-1", "title": "Clinical Data Acquisition Standards Harmonization (CDASH) User Guide V1.1", "type": "Implementation Guide"}, "rootItem": {"href": "/mdr/root/cdashig/domains/SU/fields/SITEID", "title": "Version-agnostic anchor element for field SU.SITEID", "type": "Root Data Element"}, "sdtmigDatasetMappingTargets": [{"href": "/mdr/sdtmig/3-1-2/datasets/DM/variables/SITEID", "title": "Study Site Identifier", "type": "SDTM Dataset Variable"}], "self": {"href": "/mdr/cdashig/1-1-1/domains/SU/fields/SITEID", "type": "Data Collection Field"}}, "completionInstructions": "Record your clinical site's identifier as defined by the sponsor.", "core": "HR", "definition": "Unique identifier for a site within a study.", "implementationNotes": "Paper: This is typically pre-printed in the header of each CRF page for single site studies.  For studies with multiple sites, this field is typically left blank so that the number can be recorded by the site. EDC: This should be pre-populated. SITENO has been deprecated in CDASH v1.1 and should no longer be used, because SDTM IG V3.1.2 has changed the SITEID variable definition to require uniqueness only within a study, and not within the submission.", "name": "SITEID", "ordinal": "103", "prompt": "Site", "questionText": "What is the site identifier?", "simpleDatatype": "Char"}, {"_links": {"parentDomain": {"href": "/mdr/cdashig/1-1-1/domains/SU", "title": "Substance Use", "type": "CDASH Domain"}, "parentProduct": {"href": "/mdr/cdashig/1-1-1", "title": "Clinical Data Acquisition Standards Harmonization (CDASH) User Guide V1.1", "type": "Implementation Guide"}, "rootItem": {"href": "/mdr/root/cdashig/domains/SU/fields/SUBJID", "title": "Version-agnostic anchor element for field SU.SUBJID", "type": "Root Data Element"}, "sdtmigDatasetMappingTargets": [{"href": "/mdr/sdtmig/3-1-2/datasets/DM/variables/SUBJID", "title": "Subject Identifier for the Study", "type": "SDTM Dataset Variable"}], "self": {"href": "/mdr/cdashig/1-1-1/domains/SU/fields/SUBJID", "type": "Data Collection Field"}}, "completionInstructions": "Record the identifier for the subject.", "core": "HR", "definition": "Identifier assigned to each trial subject to protect the subject's identity, and used instead of the subject's name when the Investigator reports trial data.", "implementationNotes": "Paper: This is typically recorded in the header of each CRF page. EDC: The subject identifiers may be provided to the site using a pre-populated list in the system.", "name": "SUBJID", "ordinal": "104", "prompt": "Subject", "questionText": "What is the subject identifier?", "simpleDatatype": "Char"}, {"_links": {"parentDomain": {"href": "/mdr/cdashig/1-1-1/domains/SU", "title": "Substance Use", "type": "CDASH Domain"}, "parentProduct": {"href": "/mdr/cdashig/1-1-1", "title": "Clinical Data Acquisition Standards Harmonization (CDASH) User Guide V1.1", "type": "Implementation Guide"}, "rootItem": {"href": "/mdr/root/cdashig/domains/SU/fields/USUBJID", "title": "Version-agnostic anchor element for field SU.USUBJID", "type": "Root Data Element"}, "sdtmigDatasetMappingTargets": [{"href": "/mdr/sdtmig/3-1-2/datasets/SU/variables/USUBJID", "title": "Unique Subject Identifier", "type": "SDTM Dataset Variable"}], "self": {"href": "/mdr/cdashig/1-1-1/domains/SU/fields/USUBJID", "type": "Data Collection Field"}}, "completionInstructions": "Not applicable.", "core": "O", "definition": "Identifier used to uniquely identify a subject across all studies or all applications or submissions involving the product.", "implementationNotes": "While in SDTM this is a Required variable for all subjects, in CDASH it may be used to record prospectively the identifier for subjects who are in multiple studies within a clinical program. Rarely collected on the CRF. When a subject participated in more than one study or site within a development program, SDTM requires identification of the individual uniquely through this study-shared subject identifier.", "name": "USUBJID", "ordinal": "105", "prompt": "Unique Subject ID", "questionText": "For this multi-study subject, what is the unique subject identifier?", "simpleDatatype": "Char"}, {"_links": {"parentDomain": {"href": "/mdr/cdashig/1-1-1/domains/SU", "title": "Substance Use", "type": "CDASH Domain"}, "parentProduct": {"href": "/mdr/cdashig/1-1-1", "title": "Clinical Data Acquisition Standards Harmonization (CDASH) User Guide V1.1", "type": "Implementation Guide"}, "rootItem": {"href": "/mdr/root/cdashig/domains/SU/fields/INVID", "title": "Version-agnostic anchor element for field SU.INVID", "type": "Root Data Element"}, "sdtmigDatasetMappingTargets": [{"href": "/mdr/sdtmig/3-1-2/datasets/DM/variables/INVID", "title": "Investigator Identifier", "type": "SDTM Dataset Variable"}], "self": {"href": "/mdr/cdashig/1-1-1/domains/SU/fields/INVID", "type": "Data Collection Field"}}, "completionInstructions": "Record the sponsor-defined identifier for your site investigator.", "core": "O", "definition": "A unique identifier assigned to an Investigator.", "implementationNotes": "If an investigator is associated with more than one site or the site has more than one investigator, it may be necessary to collect this information.  However, if there is only one investigator at each site, this may be equivalent to SITEID, and would not be necessary to collect.", "name": "INVID", "ordinal": "106", "prompt": "Investigator", "questionText": "What is the investigator identifier?", "simpleDatatype": "Char"}, {"_links": {"parentDomain": {"href": "/mdr/cdashig/1-1-1/domains/SU", "title": "Substance Use", "type": "CDASH Domain"}, "parentProduct": {"href": "/mdr/cdashig/1-1-1", "title": "Clinical Data Acquisition Standards Harmonization (CDASH) User Guide V1.1", "type": "Implementation Guide"}, "rootItem": {"href": "/mdr/root/cdashig/domains/SU/fields/VISIT", "title": "Version-agnostic anchor element for field SU.VISIT", "type": "Root Data Element"}, "sdtmClassMappingTargets": [{"href": "/mdr/sdtm/1-2/classes/GeneralObservations/variables/VISIT", "title": "Visit Name", "type": "Class Variable"}], "self": {"href": "/mdr/cdashig/1-1-1/domains/SU/fields/VISIT", "type": "Data Collection Field"}}, "completionInstructions": "When applicable (e.g., on paper CRFs), record the visit name.", "core": "O", "definition": "A clinical encounter that encompasses planned and unplanned trial inventions, procedures, and assessments that may be performed on a subject.", "implementationNotes": "This is typically pre-printed/pre-populated.*See the BRIDG model for complete path.", "name": "VISIT", "ordinal": "301", "prompt": "Visit", "questionText": "What is the visit name?", "simpleDatatype": "Char"}, {"_links": {"parentDomain": {"href": "/mdr/cdashig/1-1-1/domains/SU", "title": "Substance Use", "type": "CDASH Domain"}, "parentProduct": {"href": "/mdr/cdashig/1-1-1", "title": "Clinical Data Acquisition Standards Harmonization (CDASH) User Guide V1.1", "type": "Implementation Guide"}, "rootItem": {"href": "/mdr/root/cdashig/domains/SU/fields/VISITNUM", "title": "Version-agnostic anchor element for field SU.VISITNUM", "type": "Root Data Element"}, "sdtmClassMappingTargets": [{"href": "/mdr/sdtm/1-2/classes/GeneralObservations/variables/VISITNUM", "title": "Visit Number", "type": "Class Variable"}], "self": {"href": "/mdr/cdashig/1-1-1/domains/SU/fields/VISITNUM", "type": "Data Collection Field"}}, "completionInstructions": "When applicable (e.g., on paper CRFs), record the visit number.", "core": "O", "definition": "A number assigned to a clinical encounter.", "implementationNotes": "This is typically pre-printed/pre-populated. A visit number may be used to represent the chronological order of the clinical encounters.", "name": "VISITNUM", "ordinal": "302", "prompt": "Visit Number", "questionText": "What is the visit number?", "simpleDatatype": "Num"}, {"_links": {"parentDomain": {"href": "/mdr/cdashig/1-1-1/domains/SU", "title": "Substance Use", "type": "CDASH Domain"}, "parentProduct": {"href": "/mdr/cdashig/1-1-1", "title": "Clinical Data Acquisition Standards Harmonization (CDASH) User Guide V1.1", "type": "Implementation Guide"}, "rootItem": {"href": "/mdr/root/cdashig/domains/SU/fields/VISDAT", "title": "Version-agnostic anchor element for field SU.VISDAT", "type": "Root Data Element"}, "self": {"href": "/mdr/cdashig/1-1-1/domains/SU/fields/VISDAT", "type": "Data Collection Field"}}, "completionInstructions": "Record the date the visit took place or started in this format (DD-MON-YYYY).", "core": "R/C", "definition": "Date the clinical encounter occurred (or started).", "implementationNotes": "If the data being collected are visit-based, a date should be collected some way.  This may be done once for the visit using VISDAT or may be done at the CRF level using the domain-specific --DAT field. This may be recorded in either the header of the CRF or in the body of the CRF. This field does not map directly to an SDTM variable.*See the BRIDG model for complete path.", "name": "VISDAT", "ordinal": "303", "prompt": "Visit Date", "questionText": "What is the visit date?", "simpleDatatype": "Date (dd-MON-yyyy)"}], "label": "Substance Use", "name": "SU", "ordinal": "15"}], "label": "Interventions Observation Class", "name": "Interventions", "ordinal": "1"}, {"_links": {"parentProduct": {"href": "/mdr/cdashig/1-1-1", "title": "Clinical Data Acquisition Standards Harmonization (CDASH) User Guide V1.1", "type": "Implementation Guide"}, "self": {"href": "/mdr/cdashig/1-1-1/classes/Events", "title": "Events Observation Class", "type": "Class"}}, "description": "The Events class includes CDASH domains that define standards for the collection of occurrences or incidents occurring during a trial (e.g., \"adverse events\" or \"disposition\") or prior to a trial (e.g., \"medical history\"). (Source: CDASHIG v2.0, Section 8.2)", "domains": [{"_links": {"parentClass": {"href": "/mdr/cdashig/1-1-1/classes/Events", "title": "Events Observation Class", "type": "Class"}, "parentProduct": {"href": "/mdr/cdashig/1-1-1", "title": "Clinical Data Acquisition Standards Harmonization (CDASH) User Guide V1.1", "type": "Implementation Guide"}, "self": {"href": "/mdr/cdashig/1-1-1/domains/AE", "title": "Adverse Events", "type": "CDASH Domain"}}, "fields": [{"_links": {"codelist": [{"href": "/mdr/root/ct/sdtmct/codelists/C66742", "title": "Version-agnostic anchor resource for codelist C66742", "type": "Root Value Domain"}], "parentDomain": {"href": "/mdr/cdashig/1-1-1/domains/AE", "title": "Adverse Events", "type": "CDASH Domain"}, "parentProduct": {"href": "/mdr/cdashig/1-1-1", "title": "Clinical Data Acquisition Standards Harmonization (CDASH) User Guide V1.1", "type": "Implementation Guide"}, "rootItem": {"href": "/mdr/root/cdashig/domains/AE/fields/AEYN", "title": "Version-agnostic anchor element for field AE.AEYN", "type": "Root Data Element"}, "self": {"href": "/mdr/cdashig/1-1-1/domains/AE/fields/AEYN", "type": "Data Collection Field"}}, "completionInstructions": "Indicate if the subject experienced any adverse events.  If yes, include the appropriate details where indicated on the CRF.", "core": "O", "definition": "General prompt question regarding whether or not any AEs were experienced during the study.  This provides verification that all other fields on the CRF were deliberately left blank. {NY} (See Section 2.2.)", "implementationNotes": "The intent/purpose of collecting this field is to help with data cleaning and monitoring.  It provides verification that all other fields on the CRF were deliberately left blank. This field does not map directly to an SDTM variable.", "mappingInstructions": "Does not map to SDTM.  The CRF should be annotated to indicate that this field is NOT SUBMITTED.", "name": "AEYN", "ordinal": "1", "prompt": "Any AEs?", "questionText": "Were any adverse events experienced?", "simpleDatatype": "Char"}, {"_links": {"parentDomain": {"href": "/mdr/cdashig/1-1-1/domains/AE", "title": "Adverse Events", "type": "CDASH Domain"}, "parentProduct": {"href": "/mdr/cdashig/1-1-1", "title": "Clinical Data Acquisition Standards Harmonization (CDASH) User Guide V1.1", "type": "Implementation Guide"}, "rootItem": {"href": "/mdr/root/cdashig/domains/AE/fields/AESPID", "title": "Version-agnostic anchor element for field AE.AESPID", "type": "Root Data Element"}, "sdtmigDatasetMappingTargets": [{"href": "/mdr/sdtmig/3-1-2/datasets/AE/variables/AESPID", "title": "Sponsor-Defined Identifier", "type": "SDTM Dataset Variable"}], "self": {"href": "/mdr/cdashig/1-1-1/domains/AE/fields/AESPID", "type": "Data Collection Field"}}, "completionInstructions": "Example instruction: Record unique identifier for each adverse event for this subject. Number sequence for all following pages should not duplicate existing numbers for the subject.", "core": "O", "definition": "A sponsor-defined identifier that can be used for pre-printed numbers on the CRF.", "implementationNotes": "It can be beneficial to use an identifier in a data query to communicate clearly to the site the specific record in question or to reconcile concomitant medications and/or medical history records with AEs. If CMAENO is used, this is the identifier to which CMAENO refers.", "mappingInstructions": "Maps directly to SDTM.  May be used to create RELREC to link this record with a record in another domain.", "name": "AESPID", "ordinal": "2", "prompt": "<line number>   or   <AE number>", "questionText": "AE Identifier", "simpleDatatype": "Char"}, {"_links": {"parentDomain": {"href": "/mdr/cdashig/1-1-1/domains/AE", "title": "Adverse Events", "type": "CDASH Domain"}, "parentProduct": {"href": "/mdr/cdashig/1-1-1", "title": "Clinical Data Acquisition Standards Harmonization (CDASH) User Guide V1.1", "type": "Implementation Guide"}, "rootItem": {"href": "/mdr/root/cdashig/domains/AE/fields/AETERM", "title": "Version-agnostic anchor element for field AE.AETERM", "type": "Root Data Element"}, "sdtmigDatasetMappingTargets": [{"href": "/mdr/sdtmig/3-1-2/datasets/AE/variables/AETERM", "title": "Reported Term for the Adverse Event", "type": "SDTM Dataset Variable"}], "self": {"href": "/mdr/cdashig/1-1-1/domains/AE/fields/AETERM", "type": "Data Collection Field"}}, "completionInstructions": "Record only one diagnosis, sign or symptom per line (e.g., nausea and vomiting should not be recorded in the same entry, but as two separate entries). Using accepted medical terminology, enter the diagnosis (if known); otherwise enter a sign or symptom.  If a diagnosis subsequently becomes available, then this diagnosis should be entered on the AE form, replacing the original entries, where appropriate.  Death should not be recorded as an event but should be recorded as the outcome of the event.  The condition that resulted in the death should be recorded as the event.  Do not use abbreviations.", "core": "HR", "definition": "Verbatim (i.e., investigator-reported term) description of the adverse event.", "implementationNotes": "In most cases, the verbatim term (i.e., investigator-reported term) will be coded to a standard medical dictionary such as MedDRA, WHO ART, after the data have been collected on the CRF.  The coded data will be stored in field(s) not defined by CDASH.   *See the BRIDG model for complete path.", "mappingInstructions": "Maps directly to SDTM.  Can be represented either as an open entry field to capture verbatim terms reported by subjects or could be pre-printed in the situation where solicited AEs of interest are captured. If a study collects both pre-specified adverse events as well as free-text events, the value of AEPRESP should be Y for all pre-specified events and null for events reported as free-text. AEPRESP is a permissible field and may be omitted from the dataset if all adverse events were collected as free text.  In most cases, the verbatim term (i.e. investigator-reported term) will be classified based on a standard medical dictionary such as MedDRA, after the data have been collected on the CRF. The dictionary-related data will be stored in fields not defined by CDASH.", "name": "AETERM", "ordinal": "3", "prompt": "Adverse Event", "questionText": "What is the adverse event term?", "simpleDatatype": "Char"}, {"_links": {"codelist": [{"href": "/mdr/root/ct/sdtmct/codelists/C66742", "title": "Version-agnostic anchor resource for codelist C66742", "type": "Root Value Domain"}], "parentDomain": {"href": "/mdr/cdashig/1-1-1/domains/AE", "title": "Adverse Events", "type": "CDASH Domain"}, "parentProduct": {"href": "/mdr/cdashig/1-1-1", "title": "Clinical Data Acquisition Standards Harmonization (CDASH) User Guide V1.1", "type": "Implementation Guide"}, "rootItem": {"href": "/mdr/root/cdashig/domains/AE/fields/AEOCCUR", "title": "Version-agnostic anchor element for field AE.AEOCCUR", "type": "Root Data Element"}, "sdtmigDatasetMappingTargets": [{"href": "/mdr/sdtmig/3-1-2/datasets/FA/variables/FAORRES", "title": "Result or Finding in Original Units", "type": "SDTM Dataset Variable"}, {"href": "/mdr/sdtmig/3-1-2/datasets/CE/variables/CEOCCUR", "title": "Clinical Event Occurrence", "type": "SDTM Dataset Variable"}], "self": {"href": "/mdr/cdashig/1-1-1/domains/AE/fields/AEOCCUR", "type": "Data Collection Field"}}, "completionInstructions": "Please indicate if <specific adverse event> has occurred /is occurring by checking Yes or No.", "core": "O", "definition": "Used when the occurrence of a specific adverse event is solicited to indicate whether or not (N/Y) the event (AETERM) occurred.  {NY} (See Section 2.2.)", "implementationNotes": "AEOCCUR should only be used for pre-specified adverse events as defined by the protocol.  AEOCCUR should not be used for spontaneously reported adverse events.  This field does not map directly to an SDTM variable. *See the BRIDG model for complete path.", "mappingInstructions": "Since the SDTM AE domain is intended to hold only Adverse Events that actually happen, the values collected in AEOCCUR for pre-specified AEs should be submitted in either a Clinical Events domain, or in a Findings About Adverse Events data set (FAAE).  In Clinical Events, the pre-specified AE is submitted as the CETERM, CEPRESP would be populated with a value of 'Y' to indicate this was a pre-specified AE, and CEOCCUR would be populated with the value collected in AEOCCUR.  In Findings About, FATESTCD= OCCUR, FATEST=Occurrence, FAOBJ=[the pre-specified AE], and FAORRES=[the value collected in AEOCCUR].", "name": "AEOCCUR", "ordinal": "4", "prompt": "<specific adverse event>  Example: High blood pressure", "questionText": "Does the subject have <specific adverse event>?  Example: Does the subject have high blood pressure?", "simpleDatatype": "Char"}, {"_links": {"parentDomain": {"href": "/mdr/cdashig/1-1-1/domains/AE", "title": "Adverse Events", "type": "CDASH Domain"}, "parentProduct": {"href": "/mdr/cdashig/1-1-1", "title": "Clinical Data Acquisition Standards Harmonization (CDASH) User Guide V1.1", "type": "Implementation Guide"}, "rootItem": {"href": "/mdr/root/cdashig/domains/AE/fields/AESTDAT", "title": "Version-agnostic anchor element for field AE.AESTDAT", "type": "Root Data Element"}, "sdtmigDatasetMappingTargets": [{"href": "/mdr/sdtmig/3-1-2/datasets/AE/variables/AESTDTC", "title": "Start Date/Time of Adverse Event", "type": "SDTM Dataset Variable"}], "self": {"href": "/mdr/cdashig/1-1-1/domains/AE/fields/AESTDAT", "type": "Data Collection Field"}}, "completionInstructions": "Record the start date of the AE using this format (DD-MON-YYYY).", "core": "HR", "definition": "Date when the adverse event started.", "implementationNotes": "For the SDTM-based dataset, the SDTM IG variable AESTDTC is derived by concatenating CDASH Start Date (AESTDAT) and Time (AESTTIM if time is collected) and converting to the ISO 8601 format.  For more detail see the Best Practice section This field does not map directly to an SDTM variable. See the BRIDG model for complete path.", "mappingInstructions": "For the SDTM dataset, the SDTM variable --STDTC is derived by concatenating CDASH Start Date and Time (if time is applicable) into --STDTC using the ISO 8601 format.", "name": "AESTDAT", "ordinal": "5", "prompt": "Start Date", "questionText": "What is the date the adverse event started?", "simpleDatatype": "Date (dd-MON-yyyy)"}, {"_links": {"parentDomain": {"href": "/mdr/cdashig/1-1-1/domains/AE", "title": "Adverse Events", "type": "CDASH Domain"}, "parentProduct": {"href": "/mdr/cdashig/1-1-1", "title": "Clinical Data Acquisition Standards Harmonization (CDASH) User Guide V1.1", "type": "Implementation Guide"}, "rootItem": {"href": "/mdr/root/cdashig/domains/AE/fields/AESTTIM", "title": "Version-agnostic anchor element for field AE.AESTTIM", "type": "Root Data Element"}, "sdtmigDatasetMappingTargets": [{"href": "/mdr/sdtmig/3-1-2/datasets/AE/variables/AESTDTC", "title": "Start Date/Time of Adverse Event", "type": "SDTM Dataset Variable"}], "self": {"href": "/mdr/cdashig/1-1-1/domains/AE/fields/AESTTIM", "type": "Data Collection Field"}}, "completionInstructions": "If appropriate, record the time (as complete as possible) that the AE began.", "core": "R/C", "definition": "Time when the adverse event started.", "implementationNotes": "Collecting the time an AE was started is only appropriate if it can be realistically determined and if there is a scientific reason for needing to know this level of detail.  An example is where the subject is under the direct care of the site at the time the event started and the study design is such that it is important to know the AE start time with respect to dosing. For the SDTM-based dataset, the SDTM IG variable AESTDTC is derived by concatenating CDASH Start Date (AESTDAT) and Time (AESTTIM if time is collected) into AESTDTC using the ISO 8601 format. For more detail see the Best Practice section. This field does not map directly to an SDTM variable.", "mappingInstructions": "For the SDTM dataset, the SDTM variable --STDTC is derived by concatenating CDASH Start Date and Time (if time is applicable) into --STDTC using the ISO 8601 format.", "name": "AESTTIM", "ordinal": "6", "prompt": "Start Time", "questionText": "At what time did the adverse event start?", "simpleDatatype": "Time (24 hour)"}, {"_links": {"parentDomain": {"href": "/mdr/cdashig/1-1-1/domains/AE", "title": "Adverse Events", "type": "CDASH Domain"}, "parentProduct": {"href": "/mdr/cdashig/1-1-1", "title": "Clinical Data Acquisition Standards Harmonization (CDASH) User Guide V1.1", "type": "Implementation Guide"}, "rootItem": {"href": "/mdr/root/cdashig/domains/AE/fields/AEENDAT", "title": "Version-agnostic anchor element for field AE.AEENDAT", "type": "Root Data Element"}, "sdtmigDatasetMappingTargets": [{"href": "/mdr/sdtmig/3-1-2/datasets/AE/variables/AEENDTC", "title": "End Date/Time of Adverse Event", "type": "SDTM Dataset Variable"}], "self": {"href": "/mdr/cdashig/1-1-1/domains/AE/fields/AEENDAT", "type": "Data Collection Field"}}, "completionInstructions": "Record the date that the AE resolved using this format (DD-MON-YYYY).  If the AE is ongoing, leave the field blank.", "core": "HR", "definition": "Date when the adverse event resolved.", "implementationNotes": "For the SDTM-based dataset, the SDTM IG variable AEENDTC is derived by concatenating CDASH End Date (AEENDAT) and Time (AEENTIM if time is collected) into AEENDTC using the ISO 8601 format. The definition of resolved is Sponsor specific.  For more detail see the Best Practice section.  This field does not map directly to an SDTM variable. *See the BRIDG model for complete path.", "mappingInstructions": "For the SDTM dataset, the SDTM variable --ENDTC is derived by concatenating CDASH End Date and Time (if time is applicable) into --ENDTC using the ISO 8601 format.", "name": "AEENDAT", "ordinal": "7", "prompt": "End Date", "questionText": "What date did the adverse event end?", "simpleDatatype": "Date (dd-MON-yyyy)"}, {"_links": {"parentDomain": {"href": "/mdr/cdashig/1-1-1/domains/AE", "title": "Adverse Events", "type": "CDASH Domain"}, "parentProduct": {"href": "/mdr/cdashig/1-1-1", "title": "Clinical Data Acquisition Standards Harmonization (CDASH) User Guide V1.1", "type": "Implementation Guide"}, "rootItem": {"href": "/mdr/root/cdashig/domains/AE/fields/AEENTIM", "title": "Version-agnostic anchor element for field AE.AEENTIM", "type": "Root Data Element"}, "sdtmigDatasetMappingTargets": [{"href": "/mdr/sdtmig/3-1-2/datasets/AE/variables/AEENDTC", "title": "End Date/Time of Adverse Event", "type": "SDTM Dataset Variable"}], "self": {"href": "/mdr/cdashig/1-1-1/domains/AE/fields/AEENTIM", "type": "Data Collection Field"}}, "completionInstructions": "If appropriate, record the time (as complete as possible) that the AE resolved.", "core": "R/C", "definition": "Time when the adverse event resolved.", "implementationNotes": "Collecting the time an AE resolved is only appropriate if it can be realistically determined and if there is a scientific reason for needing to know this level of detail.  An example is where the subject is under the direct care of the site at the time the event resolved and the study design is such that it is important to know the AE end time with respect to dosing.  For the SDTM-based dataset, the SDTM IG variable AEENDTC is derived by concatenating CDASH End Date (AEENDAT) and Time (AEENTIM if time is collected) into AEENDTC using the ISO 8601 format. For more detail see the Best Practice section. This field does not map directly to an SDTM variable.", "mappingInstructions": "For the SDTM dataset, the SDTM variable --ENDTC is derived by concatenating CDASH End Date and Time (if time is applicable) into --ENDTC using the ISO 8601 format.", "name": "AEENTIM", "ordinal": "8", "prompt": "End Time", "questionText": "At what time did the adverse event end?", "simpleDatatype": "Time (24 hour)"}, {"_links": {"codelist": [{"href": "/mdr/root/ct/sdtmct/codelists/C66742", "title": "Version-agnostic anchor resource for codelist C66742", "type": "Root Value Domain"}], "parentDomain": {"href": "/mdr/cdashig/1-1-1/domains/AE", "title": "Adverse Events", "type": "CDASH Domain"}, "parentProduct": {"href": "/mdr/cdashig/1-1-1", "title": "Clinical Data Acquisition Standards Harmonization (CDASH) User Guide V1.1", "type": "Implementation Guide"}, "rootItem": {"href": "/mdr/root/cdashig/domains/AE/fields/AEONGO", "title": "Version-agnostic anchor element for field AE.AEONGO", "type": "Root Data Element"}, "sdtmigDatasetMappingTargets": [{"href": "/mdr/sdtmig/3-1-2/datasets/AE/variables/AEENRTPT", "title": "End Relative to Reference Time Point", "type": "SDTM Dataset Variable"}, {"href": "/mdr/sdtmig/3-1-2/datasets/AE/variables/AEENRF", "title": "End Relative to Reference Period", "type": "SDTM Dataset Variable"}, {"href": "/mdr/sdtmig/3-1-2/datasets/AE/variables/AEENTPT", "title": "End Reference Time Point", "type": "SDTM Dataset Variable"}], "self": {"href": "/mdr/cdashig/1-1-1/domains/AE/fields/AEONGO", "type": "Data Collection Field"}}, "completionInstructions": "Check the box if the adverse event has not resolved at the time of data collection; leave the End Date blank.", "core": "O", "definition": "Indicates AE is ongoing when no End Date is provided.  {NY} (See Section 2.2.)", "implementationNotes": "See section 2.1.3 Mapping Relative Times from Collection to Submissions for more information.  This field will be completed to indicate that the AE has not resolved at the time of data collection, when no End Date is collected.  In some cases the ongoing status may be determined from AE Outcome The purpose of collecting this field is to help with data cleaning and monitoring, since this field provides further confirmation that the End Date was deliberately left blank. As described in Section 3.4.1, Best Practices, this is a special use case of Yes/No.  Please refer to Section 3.4.1 for additional information. Reference Section 4.1.4 of the SDTM IG V3.1.2 for information about mapping relative times. This field does not map directly to an SDTM variable.", "mappingInstructions": "May be used to derive a value into an SDTM relative timing variable such as AEENRF or AEENRTPT.   When populating AEENRF, if the value of AEONGO is 'Y', the value of 'DURING', 'AFTER' or 'DURING/AFTER' may be derived.  When populating AEENRTPT, if the value of AEONGO is 'Y', the value of 'ONGOING' may be derived. Note: AEENRTPT must refer to a 'time point anchor' described in AEENTPT.  See SDTMIG section 4.1.4.7 for more information.", "name": "AEONGO", "ordinal": "9", "prompt": "Ongoing?", "questionText": "Is the adverse event still ongoing?", "simpleDatatype": "Char"}, {"_links": {"codelist": [{"href": "/mdr/root/ct/sdtmct/codelists/C66769", "title": "Version-agnostic anchor resource for codelist C66769", "type": "Root Value Domain"}], "parentDomain": {"href": "/mdr/cdashig/1-1-1/domains/AE", "title": "Adverse Events", "type": "CDASH Domain"}, "parentProduct": {"href": "/mdr/cdashig/1-1-1", "title": "Clinical Data Acquisition Standards Harmonization (CDASH) User Guide V1.1", "type": "Implementation Guide"}, "rootItem": {"href": "/mdr/root/cdashig/domains/AE/fields/AESEV", "title": "Version-agnostic anchor element for field AE.AESEV", "type": "Root Data Element"}, "sdtmigDatasetMappingTargets": [{"href": "/mdr/sdtmig/3-1-2/datasets/AE/variables/AESEV", "title": "Severity/Intensity", "type": "SDTM Dataset Variable"}], "self": {"href": "/mdr/cdashig/1-1-1/domains/AE/fields/AESEV", "type": "Data Collection Field"}}, "completionInstructions": "The reporting physician/healthcare professional will assess the severity of the event using the sponsor-defined categories.  This assessment is subjective and the reporting physician/ healthcare professional should use medical judgment to compare the reported Adverse Event to similar type events observed in clinical practice.  Severity is not equivalent to seriousness.", "core": "R/C", "definition": "Description of the severity of the adverse event.  {AESEV} (See Section 2.2.)", "implementationNotes": "Either AESEV or AETOXGR must appear on the CRF.  Some studies may mandate the collection of both. Refer to ICH E3 guidelines for CSR Section 12.2.4. * See the BRIDG model for complete path.", "mappingInstructions": "Maps directly to SDTM.  The sponsor is expected to provide the toxicity scale name and version used to map the terms utilizing the define.xml external code list attributes.", "name": "AESEV", "ordinal": "10", "prompt": "Severity", "questionText": "What was the severity of the adverse event?", "simpleDatatype": "Char"}, {"_links": {"codelist": [{"href": "/mdr/root/ct/sdtmct/codelists/C87162", "title": "Version-agnostic anchor resource for codelist C87162", "type": "Root Value Domain"}], "parentDomain": {"href": "/mdr/cdashig/1-1-1/domains/AE", "title": "Adverse Events", "type": "CDASH Domain"}, "parentProduct": {"href": "/mdr/cdashig/1-1-1", "title": "Clinical Data Acquisition Standards Harmonization (CDASH) User Guide V1.1", "type": "Implementation Guide"}, "rootItem": {"href": "/mdr/root/cdashig/domains/AE/fields/AETOXGR", "title": "Version-agnostic anchor element for field AE.AETOXGR", "type": "Root Data Element"}, "sdtmigDatasetMappingTargets": [{"href": "/mdr/sdtmig/3-1-2/datasets/AE/variables/AETOXGR", "title": "Standard Toxicity Grade", "type": "SDTM Dataset Variable"}], "self": {"href": "/mdr/cdashig/1-1-1/domains/AE/fields/AETOXGR", "type": "Data Collection Field"}}, "completionInstructions": "Severity CTCAE Grade The reporting physician/healthcare professional will assess the severity of the adverse event using the toxicity grades.", "core": "R/C", "definition": "Description of the toxicity grade of the adverse event. {TOXGR} (See Section  2.2.)", "implementationNotes": "Either AESEV or AETOXGR must appear on the CRF.  Some studies may mandate the collection of both. Refer to ICH E3 guidelines for CSR Section 12.2.4. CTCAE grade is commonly used in oncology studies although it can also be used elsewhere. * See the BRIDG model for complete path.", "mappingInstructions": "Maps directly to SDTM.  The sponsor is expected to provide the toxicity scale name and version used to map the terms utilizing the define.xml external code list attributes.", "name": "AETOXGR", "ordinal": "11", "prompt": "Toxicity Grade", "questionText": "What is the toxicity grade of the adverse event?", "simpleDatatype": "Char"}, {"_links": {"codelist": [{"href": "/mdr/root/ct/sdtmct/codelists/C66742", "title": "Version-agnostic anchor resource for codelist C66742", "type": "Root Value Domain"}], "parentDomain": {"href": "/mdr/cdashig/1-1-1/domains/AE", "title": "Adverse Events", "type": "CDASH Domain"}, "parentProduct": {"href": "/mdr/cdashig/1-1-1", "title": "Clinical Data Acquisition Standards Harmonization (CDASH) User Guide V1.1", "type": "Implementation Guide"}, "rootItem": {"href": "/mdr/root/cdashig/domains/AE/fields/AESER", "title": "Version-agnostic anchor element for field AE.AESER", "type": "Root Data Element"}, "sdtmigDatasetMappingTargets": [{"href": "/mdr/sdtmig/3-1-2/datasets/AE/variables/AESER", "title": "Serious Event", "type": "SDTM Dataset Variable"}], "self": {"href": "/mdr/cdashig/1-1-1/domains/AE/fields/AESER", "type": "Data Collection Field"}}, "completionInstructions": "Assess if an adverse event should be classified as serious based on the serious criteria defined in the protocol.", "core": "R/C", "definition": "Indicates whether or not the adverse event is determined to be \"serious\" based on what is defined in the protocol.  {NY} (See Section 2.2.)", "implementationNotes": "This field is related to the individual serious adverse event type fields (reference 11a to 11f), which may or may not be collected on the CRF. Either AESER or all the AExxx fields (12a-12f) must be present on the CRF.", "name": "AESER", "ordinal": "12", "prompt": "Serious", "questionText": "Is the adverse event serious?", "simpleDatatype": "Char"}, {"_links": {"codelist": [{"href": "/mdr/root/ct/sdtmct/codelists/C66742", "title": "Version-agnostic anchor resource for codelist C66742", "type": "Root Value Domain"}], "parentDomain": {"href": "/mdr/cdashig/1-1-1/domains/AE", "title": "Adverse Events", "type": "CDASH Domain"}, "parentProduct": {"href": "/mdr/cdashig/1-1-1", "title": "Clinical Data Acquisition Standards Harmonization (CDASH) User Guide V1.1", "type": "Implementation Guide"}, "rootItem": {"href": "/mdr/root/cdashig/domains/AE/fields/AESCONG", "title": "Version-agnostic anchor element for field AE.AESCONG", "type": "Root Data Element"}, "sdtmigDatasetMappingTargets": [{"href": "/mdr/sdtmig/3-1-2/datasets/AE/variables/AESCONG", "title": "Congenital Anomaly or Birth Defect", "type": "SDTM Dataset Variable"}], "self": {"href": "/mdr/cdashig/1-1-1/domains/AE/fields/AESCONG", "type": "Data Collection Field"}}, "completionInstructions": "Record whether the serious adverse event was associated with congenital anomaly or birth defect.", "core": "R/C", "definition": "Indicates if a \"serious\" adverse event was associated with a congenital anomaly or birth defect.  {NY} (See Section 2.2.)", "implementationNotes": "If the details regarding a Serious AE should be collected in the clinical database, then it is recommended that a separate Yes/No variable be defined for each Serious AE type.  In many cases sponsors will only collect the AESER field because the individual serious adverse event types might be collected in a separate pharmacovigilance database and therefore do not need to be collected in the clinical database. *See the BRIDG model for complete path.", "name": "AESCONG", "ordinal": "13", "prompt": "Congenital Anomaly or Birth Defect", "questionText": "Is the adverse event associated with a congenital anomaly or birth defect?", "simpleDatatype": "Char"}, {"_links": {"codelist": [{"href": "/mdr/root/ct/sdtmct/codelists/C66742", "title": "Version-agnostic anchor resource for codelist C66742", "type": "Root Value Domain"}], "parentDomain": {"href": "/mdr/cdashig/1-1-1/domains/AE", "title": "Adverse Events", "type": "CDASH Domain"}, "parentProduct": {"href": "/mdr/cdashig/1-1-1", "title": "Clinical Data Acquisition Standards Harmonization (CDASH) User Guide V1.1", "type": "Implementation Guide"}, "rootItem": {"href": "/mdr/root/cdashig/domains/AE/fields/AESDISAB", "title": "Version-agnostic anchor element for field AE.AESDISAB", "type": "Root Data Element"}, "sdtmigDatasetMappingTargets": [{"href": "/mdr/sdtmig/3-1-2/datasets/AE/variables/AESDISAB", "title": "Persist or Signif Disability/Incapacity", "type": "SDTM Dataset Variable"}], "self": {"href": "/mdr/cdashig/1-1-1/domains/AE/fields/AESDISAB", "type": "Data Collection Field"}}, "completionInstructions": "Record whether the serious adverse event resulted in a persistent or significant disability or incapacity.", "core": "R/C", "definition": "Indicates if a \"serious\" adverse event was associated with a persistent or significant disability or incapacity. {NY} (See Section 2.2.)", "implementationNotes": "If the details regarding a Serious AE should be collected in the clinical database, then it is recommended that a separate Yes/No variable be defined for each Serious AE type.  In many cases sponsors will only collect the AESER field because the individual serious adverse event types might be collected in a separate pharmacovigilance database and therefore do not need to be collected in the clinical database. *See the BRIDG model for complete path.", "name": "AESDISAB", "ordinal": "14", "prompt": "Significant Disability", "questionText": "Did the adverse event result in Persistent or significant disability or incapacity?", "simpleDatatype": "Char"}, {"_links": {"codelist": [{"href": "/mdr/root/ct/sdtmct/codelists/C66742", "title": "Version-agnostic anchor resource for codelist C66742", "type": "Root Value Domain"}], "parentDomain": {"href": "/mdr/cdashig/1-1-1/domains/AE", "title": "Adverse Events", "type": "CDASH Domain"}, "parentProduct": {"href": "/mdr/cdashig/1-1-1", "title": "Clinical Data Acquisition Standards Harmonization (CDASH) User Guide V1.1", "type": "Implementation Guide"}, "rootItem": {"href": "/mdr/root/cdashig/domains/AE/fields/AESDTH", "title": "Version-agnostic anchor element for field AE.AESDTH", "type": "Root Data Element"}, "sdtmigDatasetMappingTargets": [{"href": "/mdr/sdtmig/3-1-2/datasets/AE/variables/AESDTH", "title": "Results in Death", "type": "SDTM Dataset Variable"}], "self": {"href": "/mdr/cdashig/1-1-1/domains/AE/fields/AESDTH", "type": "Data Collection Field"}}, "completionInstructions": "Record whether the serious adverse event resulted in death.", "core": "R/C", "definition": "Indicates if a \"serious\" adverse event resulted in death. {NY} (See Section 2.2.)", "implementationNotes": "If the details regarding a Serious AE should be collected in the clinical database, then it is recommended that a separate Yes/No variable be defined for each Serious AE type.  In many cases sponsors will only collect the AESER field because the individual serious adverse event types might be collected in a separate pharmacovigilance database and therefore do not need to be collected in the clinical database. *See the BRIDG model for complete path.", "name": "AESDTH", "ordinal": "15", "prompt": "Death", "questionText": "Did the adverse event result in death?", "simpleDatatype": "Char"}, {"_links": {"codelist": [{"href": "/mdr/root/ct/sdtmct/codelists/C66742", "title": "Version-agnostic anchor resource for codelist C66742", "type": "Root Value Domain"}], "parentDomain": {"href": "/mdr/cdashig/1-1-1/domains/AE", "title": "Adverse Events", "type": "CDASH Domain"}, "parentProduct": {"href": "/mdr/cdashig/1-1-1", "title": "Clinical Data Acquisition Standards Harmonization (CDASH) User Guide V1.1", "type": "Implementation Guide"}, "rootItem": {"href": "/mdr/root/cdashig/domains/AE/fields/AESHOSP", "title": "Version-agnostic anchor element for field AE.AESHOSP", "type": "Root Data Element"}, "sdtmigDatasetMappingTargets": [{"href": "/mdr/sdtmig/3-1-2/datasets/AE/variables/AESHOSP", "title": "Requires or Prolongs Hospitalization", "type": "SDTM Dataset Variable"}], "self": {"href": "/mdr/cdashig/1-1-1/domains/AE/fields/AESHOSP", "type": "Data Collection Field"}}, "completionInstructions": "Record whether the serious adverse event resulted in an initial or prolonged hospitalization.", "core": "R/C", "definition": "Indicates if a \"serious\" adverse event resulted in an initial or prolonged hospitalization.  {NY} (See Section 2.2.)", "implementationNotes": "If the details regarding a Serious AE should be collected in the clinical database, then it is recommended that a separate Yes/No variable be defined for each Serious AE type.  In many cases sponsors will only collect the AESER field because the individual serious adverse event types might be collected in a separate pharmacovigilance database and therefore do not need to be collected in the clinical database. *See the BRIDG model for complete path.", "name": "AESHOSP", "ordinal": "16", "prompt": "Hospitalization", "questionText": "Did the adverse event result in initial or prolonged hospitalization for the subject?", "simpleDatatype": "Char"}, {"_links": {"codelist": [{"href": "/mdr/root/ct/sdtmct/codelists/C66742", "title": "Version-agnostic anchor resource for codelist C66742", "type": "Root Value Domain"}], "parentDomain": {"href": "/mdr/cdashig/1-1-1/domains/AE", "title": "Adverse Events", "type": "CDASH Domain"}, "parentProduct": {"href": "/mdr/cdashig/1-1-1", "title": "Clinical Data Acquisition Standards Harmonization (CDASH) User Guide V1.1", "type": "Implementation Guide"}, "rootItem": {"href": "/mdr/root/cdashig/domains/AE/fields/AESLIFE", "title": "Version-agnostic anchor element for field AE.AESLIFE", "type": "Root Data Element"}, "sdtmigDatasetMappingTargets": [{"href": "/mdr/sdtmig/3-1-2/datasets/AE/variables/AESLIFE", "title": "Is Life Threatening", "type": "SDTM Dataset Variable"}], "self": {"href": "/mdr/cdashig/1-1-1/domains/AE/fields/AESLIFE", "type": "Data Collection Field"}}, "completionInstructions": "Record whether the serious adverse event is life threatening.", "core": "R/C", "definition": "Indicates if a \"serious\" adverse event was life threatening.  {NY} (See Section 2.2.)", "implementationNotes": "If the details regarding a Serious AE should be collected in the clinical database, then it is recommended that a separate Yes/No variable be defined for each Serious AE type.  In many cases sponsors will only collect the AESER field because the individual serious adverse event types might be collected in a separate pharmacovigilance database and therefore do not need to be collected in the clinical database. *See the BRIDG model for complete path.", "name": "AESLIFE", "ordinal": "17", "prompt": "Life threatening", "questionText": "Is the adverse event Life Threatening?", "simpleDatatype": "Char"}, {"_links": {"codelist": [{"href": "/mdr/root/ct/sdtmct/codelists/C66742", "title": "Version-agnostic anchor resource for codelist C66742", "type": "Root Value Domain"}], "parentDomain": {"href": "/mdr/cdashig/1-1-1/domains/AE", "title": "Adverse Events", "type": "CDASH Domain"}, "parentProduct": {"href": "/mdr/cdashig/1-1-1", "title": "Clinical Data Acquisition Standards Harmonization (CDASH) User Guide V1.1", "type": "Implementation Guide"}, "rootItem": {"href": "/mdr/root/cdashig/domains/AE/fields/AESMIE", "title": "Version-agnostic anchor element for field AE.AESMIE", "type": "Root Data Element"}, "sdtmigDatasetMappingTargets": [{"href": "/mdr/sdtmig/3-1-2/datasets/AE/variables/AESMIE", "title": "Other Medically Important Serious Event", "type": "SDTM Dataset Variable"}], "self": {"href": "/mdr/cdashig/1-1-1/domains/AE/fields/AESMIE", "type": "Data Collection Field"}}, "completionInstructions": "Record whether the serious adverse event is an important medical event, which may be defined in the protocol or in the Investigator Brochure.", "core": "R/C", "definition": "Indicates if a \"serious\" adverse event is associated with other serious or important medical events.  {NY} (See Section 2.2.)", "implementationNotes": "If the details regarding a Serious AE should be collected in the clinical database, then it is recommended that a separate Yes/No variable be defined for each Serious AE type.  In many cases sponsors will only collect the AESER field because the individual serious adverse event types might be collected in a separate pharmacovigilance database and therefore do not need to be collected in the clinical database. *See the BRIDG model for complete path.", "name": "AESMIE", "ordinal": "18", "prompt": "Other Medically Important Event", "questionText": "Is the adverse event a medically important event not covered by other serious criteria?", "simpleDatatype": "Char"}, {"_links": {"parentDomain": {"href": "/mdr/cdashig/1-1-1/domains/AE", "title": "Adverse Events", "type": "CDASH Domain"}, "parentProduct": {"href": "/mdr/cdashig/1-1-1", "title": "Clinical Data Acquisition Standards Harmonization (CDASH) User Guide V1.1", "type": "Implementation Guide"}, "rootItem": {"href": "/mdr/root/cdashig/domains/AE/fields/AEREL", "title": "Version-agnostic anchor element for field AE.AEREL", "type": "Root Data Element"}, "sdtmigDatasetMappingTargets": [{"href": "/mdr/sdtmig/3-1-2/datasets/AE/variables/AEREL", "title": "Causality", "type": "SDTM Dataset Variable"}], "self": {"href": "/mdr/cdashig/1-1-1/domains/AE/fields/AEREL", "type": "Data Collection Field"}}, "completionInstructions": "Indicate if the cause of the adverse event is related to the study treatment and cannot be reasonably explained by other factors (e.g., subject's clinical state, concomitant therapy, and/or other interventions).", "core": "HR", "definition": "Indication of whether the study treatment had a causal effect on the adverse event, as determined by the clinician/investigator.", "implementationNotes": "Sponsored-defined terminology will be used to indicate the relationship between the AE and the study treatment (e.g. ICH E2B examples: Not Related, Unlikely Related, Possibly Related, Related). *See the BRIDG model for complete path.", "mappingInstructions": "Maps directly to SDTM.  The other possibility is the use of Y and N. Controlled Terminology may be defined in the future. It is recommended that you check with the appropriate regulatory authority for population of this variable so that it meets their expectations for your submission.", "name": "AEREL", "ordinal": "19", "prompt": "Relationship to Study Treatment", "questionText": "Is this event related to study treatment?", "simpleDatatype": "Char"}, {"_links": {"codelist": [{"href": "/mdr/root/ct/sdtmct/codelists/C66767", "title": "Version-agnostic anchor resource for codelist C66767", "type": "Root Value Domain"}], "parentDomain": {"href": "/mdr/cdashig/1-1-1/domains/AE", "title": "Adverse Events", "type": "CDASH Domain"}, "parentProduct": {"href": "/mdr/cdashig/1-1-1", "title": "Clinical Data Acquisition Standards Harmonization (CDASH) User Guide V1.1", "type": "Implementation Guide"}, "rootItem": {"href": "/mdr/root/cdashig/domains/AE/fields/AEACN", "title": "Version-agnostic anchor element for field AE.AEACN", "type": "Root Data Element"}, "sdtmigDatasetMappingTargets": [{"href": "/mdr/sdtmig/3-1-2/datasets/AE/variables/AEACN", "title": "Action Taken with Study Treatment", "type": "SDTM Dataset Variable"}], "self": {"href": "/mdr/cdashig/1-1-1/domains/AE/fields/AEACN", "type": "Data Collection Field"}}, "completionInstructions": "Record changes made to the study treatment resulting from the adverse event.", "core": "HR", "definition": "Changes made to the study treatment in response to the adverse event. {ACN} (See Section 2.2.)", "implementationNotes": "CDISC controlled terminology should be used to indicate the action taken with the study treatment in response to the AE. *See the BRIDG model for complete path.", "name": "AEACN", "ordinal": "20", "prompt": "Action Taken with Study Treatment", "questionText": "What action was taken with study treatment?", "simpleDatatype": "Char"}, {"_links": {"parentDomain": {"href": "/mdr/cdashig/1-1-1/domains/AE", "title": "Adverse Events", "type": "CDASH Domain"}, "parentProduct": {"href": "/mdr/cdashig/1-1-1", "title": "Clinical Data Acquisition Standards Harmonization (CDASH) User Guide V1.1", "type": "Implementation Guide"}, "rootItem": {"href": "/mdr/root/cdashig/domains/AE/fields/AEACNOTH", "title": "Version-agnostic anchor element for field AE.AEACNOTH", "type": "Root Data Element"}, "sdtmigDatasetMappingTargets": [{"href": "/mdr/sdtmig/3-1-2/datasets/AE/variables/AEACNOTH", "title": "Other Action Taken", "type": "SDTM Dataset Variable"}], "self": {"href": "/mdr/cdashig/1-1-1/domains/AE/fields/AEACNOTH", "type": "Data Collection Field"}}, "completionInstructions": "Record all other action(s) taken resulting from the adverse event that are unrelated to study treatment.", "core": "O", "definition": "Describes Other Action(s) taken in response to the adverse event that are unrelated to study treatment dose changes.", "implementationNotes": "This field is usually collected as a free text field.  Example: Treatment Unblinded, Primary Care Physician Notified. *See the BRIDG model for complete path.", "mappingInstructions": "Maps directly to SDTM.   If possible/desired, create sponsor-controlled terminology.", "name": "AEACNOTH", "ordinal": "21", "prompt": "Other Action Taken", "questionText": "What other action was taken in response to this adverse event?", "simpleDatatype": "Char"}, {"_links": {"codelist": [{"href": "/mdr/root/ct/sdtmct/codelists/C66768", "title": "Version-agnostic anchor resource for codelist C66768", "type": "Root Value Domain"}], "parentDomain": {"href": "/mdr/cdashig/1-1-1/domains/AE", "title": "Adverse Events", "type": "CDASH Domain"}, "parentProduct": {"href": "/mdr/cdashig/1-1-1", "title": "Clinical Data Acquisition Standards Harmonization (CDASH) User Guide V1.1", "type": "Implementation Guide"}, "rootItem": {"href": "/mdr/root/cdashig/domains/AE/fields/AEOUT", "title": "Version-agnostic anchor element for field AE.AEOUT", "type": "Root Data Element"}, "sdtmigDatasetMappingTargets": [{"href": "/mdr/sdtmig/3-1-2/datasets/AE/variables/AEOUT", "title": "Outcome of Adverse Event", "type": "SDTM Dataset Variable"}], "self": {"href": "/mdr/cdashig/1-1-1/domains/AE/fields/AEOUT", "type": "Data Collection Field"}}, "completionInstructions": "Record the appropriate outcome of the event in relation to the subject's status.", "core": "HR", "definition": "Description of the subject's status associated with an event. {OUT} (See Section 2.2.)", "implementationNotes": "CDISC controlled terminology should be used to indicate the outcome of the event as it relates to the subject's status.  The Outcome controlled terminology includes ICH E2B values. *See the BRIDG model for complete path.", "name": "AEOUT", "ordinal": "22", "prompt": "Outcome", "questionText": "What was the outcome of this adverse event?", "simpleDatatype": "Char"}, {"_links": {"codelist": [{"href": "/mdr/root/ct/sdtmct/codelists/C66742", "title": "Version-agnostic anchor resource for codelist C66742", "type": "Root Value Domain"}], "parentDomain": {"href": "/mdr/cdashig/1-1-1/domains/AE", "title": "Adverse Events", "type": "CDASH Domain"}, "parentProduct": {"href": "/mdr/cdashig/1-1-1", "title": "Clinical Data Acquisition Standards Harmonization (CDASH) User Guide V1.1", "type": "Implementation Guide"}, "rootItem": {"href": "/mdr/root/cdashig/domains/AE/fields/AEDIS", "title": "Version-agnostic anchor element for field AE.AEDIS", "type": "Root Data Element"}, "self": {"href": "/mdr/cdashig/1-1-1/domains/AE/fields/AEDIS", "type": "Data Collection Field"}}, "completionInstructions": "Record if the AE caused the subject to discontinue from the study.", "core": "O", "definition": "Indication of whether the adverse event caused the subject to discontinue from the study. {NY} (See Section 2.2.)", "implementationNotes": "Since the Action Taken field was defined to only collect the changes made to the study treatment due to the AE, an additional field was created to identify the AE(s) that caused the subject to discontinue from the study.  Some sponsors opt to capture this information only on the Subject Disposition CRF while others choose to collect this data on both the Subject Disposition and AE CRFs, so the specific AE term(s) and related data can be identified.  This field does not map directly to an SDTM variable. If the CRF is designed to link the DS and AE records then RELREC can be used to identify that relationship. See section 8.2 in the SDTM IG V3.1.2 for information on RELREC. *See the BRIDG model for complete path.", "mappingInstructions": "May be used to create a RELREC to link the Adverse Event to the Disposition record.  This information could also be submitted in a SUPPAE dataset.  The value of AEDIS may be used to populate SUPPAE.QVAL where SUPPAE.QNAM = AEDIS.", "name": "AEDIS", "ordinal": "23", "prompt": "Caused Study Discontinuation", "questionText": "Did the adverse event cause the subject to be discontinued from the study?", "simpleDatatype": "Char"}, {"_links": {"parentDomain": {"href": "/mdr/cdashig/1-1-1/domains/AE", "title": "Adverse Events", "type": "CDASH Domain"}, "parentProduct": {"href": "/mdr/cdashig/1-1-1", "title": "Clinical Data Acquisition Standards Harmonization (CDASH) User Guide V1.1", "type": "Implementation Guide"}, "rootItem": {"href": "/mdr/root/cdashig/domains/AE/fields/SPONSOR", "title": "Version-agnostic anchor element for field AE.SPONSOR", "type": "Root Data Element"}, "self": {"href": "/mdr/cdashig/1-1-1/domains/AE/fields/SPONSOR", "type": "Data Collection Field"}}, "completionInstructions": "Not applicable", "core": "O", "definition": "A unique identifier for a study sponsor.  An individual, company, institution, or organization that takes responsibility for the initiation and management of a clinical trial, although may or may not be the main funding organization.  If there is also a secondary sponsor, this entity would be considered the primary sponsor. A corporation or agency whose employees conduct the investigation is considered a sponsor and the employees are considered investigators.", "implementationNotes": "This is typically pre-printed. It may be used as an identifier in external data warehouses (e.g. Janus) and in electronic medical records or other partnerships for sharing data. This field does not map directly to an SDTM variable. *See the BRIDG model for complete path.", "name": "SPONSOR", "ordinal": "101", "prompt": "Sponsor", "questionText": "What is the sponsor identifier?", "simpleDatatype": "Char"}, {"_links": {"parentDomain": {"href": "/mdr/cdashig/1-1-1/domains/AE", "title": "Adverse Events", "type": "CDASH Domain"}, "parentProduct": {"href": "/mdr/cdashig/1-1-1", "title": "Clinical Data Acquisition Standards Harmonization (CDASH) User Guide V1.1", "type": "Implementation Guide"}, "rootItem": {"href": "/mdr/root/cdashig/domains/AE/fields/STUDYID", "title": "Version-agnostic anchor element for field AE.STUDYID", "type": "Root Data Element"}, "sdtmigDatasetMappingTargets": [{"href": "/mdr/sdtmig/3-1-2/datasets/AE/variables/STUDYID", "title": "Study Identifier", "type": "SDTM Dataset Variable"}], "self": {"href": "/mdr/cdashig/1-1-1/domains/AE/fields/STUDYID", "type": "Data Collection Field"}}, "completionInstructions": "Not applicable.", "core": "HR", "definition": "Unique identifier for a study.", "implementationNotes": "This is typically pre-printed/pre-populated. *See the BRIDG model for complete path.", "name": "STUDYID", "ordinal": "102", "prompt": "Protocol or Study", "questionText": "What is the study identifier?", "simpleDatatype": "Char"}, {"_links": {"parentDomain": {"href": "/mdr/cdashig/1-1-1/domains/AE", "title": "Adverse Events", "type": "CDASH Domain"}, "parentProduct": {"href": "/mdr/cdashig/1-1-1", "title": "Clinical Data Acquisition Standards Harmonization (CDASH) User Guide V1.1", "type": "Implementation Guide"}, "rootItem": {"href": "/mdr/root/cdashig/domains/AE/fields/SITEID", "title": "Version-agnostic anchor element for field AE.SITEID", "type": "Root Data Element"}, "sdtmigDatasetMappingTargets": [{"href": "/mdr/sdtmig/3-1-2/datasets/DM/variables/SITEID", "title": "Study Site Identifier", "type": "SDTM Dataset Variable"}], "self": {"href": "/mdr/cdashig/1-1-1/domains/AE/fields/SITEID", "type": "Data Collection Field"}}, "completionInstructions": "Record your clinical site's identifier as defined by the sponsor.", "core": "HR", "definition": "Unique identifier for a site within a study.", "implementationNotes": "Paper: This is typically pre-printed in the header of each CRF page for single site studies.  For studies with multiple sites, this field is typically left blank so that the number can be recorded by the site. EDC: This should be pre-populated. SITENO has been deprecated in CDASH v1.1 and should no longer be used, because SDTM IG V3.1.2 has changed the SITEID variable definition to require uniqueness only within a study, and not within the submission.", "name": "SITEID", "ordinal": "103", "prompt": "Site", "questionText": "What is the site identifier?", "simpleDatatype": "Char"}, {"_links": {"parentDomain": {"href": "/mdr/cdashig/1-1-1/domains/AE", "title": "Adverse Events", "type": "CDASH Domain"}, "parentProduct": {"href": "/mdr/cdashig/1-1-1", "title": "Clinical Data Acquisition Standards Harmonization (CDASH) User Guide V1.1", "type": "Implementation Guide"}, "rootItem": {"href": "/mdr/root/cdashig/domains/AE/fields/SUBJID", "title": "Version-agnostic anchor element for field AE.SUBJID", "type": "Root Data Element"}, "sdtmigDatasetMappingTargets": [{"href": "/mdr/sdtmig/3-1-2/datasets/DM/variables/SUBJID", "title": "Subject Identifier for the Study", "type": "SDTM Dataset Variable"}], "self": {"href": "/mdr/cdashig/1-1-1/domains/AE/fields/SUBJID", "type": "Data Collection Field"}}, "completionInstructions": "Record the identifier for the subject.", "core": "HR", "definition": "Identifier assigned to each trial subject to protect the subject's identity, and used instead of the subject's name when the Investigator reports trial data.", "implementationNotes": "Paper: This is typically recorded in the header of each CRF page. EDC: The subject identifiers may be provided to the site using a pre-populated list in the system.", "name": "SUBJID", "ordinal": "104", "prompt": "Subject", "questionText": "What is the subject identifier?", "simpleDatatype": "Char"}, {"_links": {"parentDomain": {"href": "/mdr/cdashig/1-1-1/domains/AE", "title": "Adverse Events", "type": "CDASH Domain"}, "parentProduct": {"href": "/mdr/cdashig/1-1-1", "title": "Clinical Data Acquisition Standards Harmonization (CDASH) User Guide V1.1", "type": "Implementation Guide"}, "rootItem": {"href": "/mdr/root/cdashig/domains/AE/fields/USUBJID", "title": "Version-agnostic anchor element for field AE.USUBJID", "type": "Root Data Element"}, "sdtmigDatasetMappingTargets": [{"href": "/mdr/sdtmig/3-1-2/datasets/AE/variables/USUBJID", "title": "Unique Subject Identifier", "type": "SDTM Dataset Variable"}], "self": {"href": "/mdr/cdashig/1-1-1/domains/AE/fields/USUBJID", "type": "Data Collection Field"}}, "completionInstructions": "Not applicable.", "core": "O", "definition": "Identifier used to uniquely identify a subject across all studies or all applications or submissions involving the product.", "implementationNotes": "While in SDTM this is a Required variable for all subjects, in CDASH it may be used to record prospectively the identifier for subjects who are in multiple studies within a clinical program. Rarely collected on the CRF. When a subject participated in more than one study or site within a development program, SDTM requires identification of the individual uniquely through this study-shared subject identifier.", "name": "USUBJID", "ordinal": "105", "prompt": "Unique Subject ID", "questionText": "For this multi-study subject, what is the unique subject identifier?", "simpleDatatype": "Char"}, {"_links": {"parentDomain": {"href": "/mdr/cdashig/1-1-1/domains/AE", "title": "Adverse Events", "type": "CDASH Domain"}, "parentProduct": {"href": "/mdr/cdashig/1-1-1", "title": "Clinical Data Acquisition Standards Harmonization (CDASH) User Guide V1.1", "type": "Implementation Guide"}, "rootItem": {"href": "/mdr/root/cdashig/domains/AE/fields/INVID", "title": "Version-agnostic anchor element for field AE.INVID", "type": "Root Data Element"}, "sdtmigDatasetMappingTargets": [{"href": "/mdr/sdtmig/3-1-2/datasets/DM/variables/INVID", "title": "Investigator Identifier", "type": "SDTM Dataset Variable"}], "self": {"href": "/mdr/cdashig/1-1-1/domains/AE/fields/INVID", "type": "Data Collection Field"}}, "completionInstructions": "Record the sponsor-defined identifier for your site investigator.", "core": "O", "definition": "A unique identifier assigned to an Investigator.", "implementationNotes": "If an investigator is associated with more than one site or the site has more than one investigator, it may be necessary to collect this information.  However, if there is only one investigator at each site, this may be equivalent to SITEID, and would not be necessary to collect.", "name": "INVID", "ordinal": "106", "prompt": "Investigator", "questionText": "What is the investigator identifier?", "simpleDatatype": "Char"}, {"_links": {"parentDomain": {"href": "/mdr/cdashig/1-1-1/domains/AE", "title": "Adverse Events", "type": "CDASH Domain"}, "parentProduct": {"href": "/mdr/cdashig/1-1-1", "title": "Clinical Data Acquisition Standards Harmonization (CDASH) User Guide V1.1", "type": "Implementation Guide"}, "rootItem": {"href": "/mdr/root/cdashig/domains/AE/fields/VISIT", "title": "Version-agnostic anchor element for field AE.VISIT", "type": "Root Data Element"}, "sdtmClassMappingTargets": [{"href": "/mdr/sdtm/1-2/classes/GeneralObservations/variables/VISIT", "title": "Visit Name", "type": "Class Variable"}], "self": {"href": "/mdr/cdashig/1-1-1/domains/AE/fields/VISIT", "type": "Data Collection Field"}}, "completionInstructions": "When applicable (e.g., on paper CRFs), record the visit name.", "core": "O", "definition": "A clinical encounter that encompasses planned and unplanned trial inventions, procedures, and assessments that may be performed on a subject.", "implementationNotes": "This is typically pre-printed/pre-populated.*See the BRIDG model for complete path.", "name": "VISIT", "ordinal": "301", "prompt": "Visit", "questionText": "What is the visit name?", "simpleDatatype": "Char"}, {"_links": {"parentDomain": {"href": "/mdr/cdashig/1-1-1/domains/AE", "title": "Adverse Events", "type": "CDASH Domain"}, "parentProduct": {"href": "/mdr/cdashig/1-1-1", "title": "Clinical Data Acquisition Standards Harmonization (CDASH) User Guide V1.1", "type": "Implementation Guide"}, "rootItem": {"href": "/mdr/root/cdashig/domains/AE/fields/VISITNUM", "title": "Version-agnostic anchor element for field AE.VISITNUM", "type": "Root Data Element"}, "sdtmClassMappingTargets": [{"href": "/mdr/sdtm/1-2/classes/GeneralObservations/variables/VISITNUM", "title": "Visit Number", "type": "Class Variable"}], "self": {"href": "/mdr/cdashig/1-1-1/domains/AE/fields/VISITNUM", "type": "Data Collection Field"}}, "completionInstructions": "When applicable (e.g., on paper CRFs), record the visit number.", "core": "O", "definition": "A number assigned to a clinical encounter.", "implementationNotes": "This is typically pre-printed/pre-populated. A visit number may be used to represent the chronological order of the clinical encounters.", "name": "VISITNUM", "ordinal": "302", "prompt": "Visit Number", "questionText": "What is the visit number?", "simpleDatatype": "Num"}, {"_links": {"parentDomain": {"href": "/mdr/cdashig/1-1-1/domains/AE", "title": "Adverse Events", "type": "CDASH Domain"}, "parentProduct": {"href": "/mdr/cdashig/1-1-1", "title": "Clinical Data Acquisition Standards Harmonization (CDASH) User Guide V1.1", "type": "Implementation Guide"}, "rootItem": {"href": "/mdr/root/cdashig/domains/AE/fields/VISDAT", "title": "Version-agnostic anchor element for field AE.VISDAT", "type": "Root Data Element"}, "self": {"href": "/mdr/cdashig/1-1-1/domains/AE/fields/VISDAT", "type": "Data Collection Field"}}, "completionInstructions": "Record the date the visit took place or started in this format (DD-MON-YYYY).", "core": "R/C", "definition": "Date the clinical encounter occurred (or started).", "implementationNotes": "If the data being collected are visit-based, a date should be collected some way.  This may be done once for the visit using VISDAT or may be done at the CRF level using the domain-specific --DAT field. This may be recorded in either the header of the CRF or in the body of the CRF. This field does not map directly to an SDTM variable.*See the BRIDG model for complete path.", "name": "VISDAT", "ordinal": "303", "prompt": "Visit Date", "questionText": "What is the visit date?", "simpleDatatype": "Date (dd-MON-yyyy)"}], "label": "Adverse Events", "name": "AE", "ordinal": "1"}, {"_links": {"parentClass": {"href": "/mdr/cdashig/1-1-1/classes/Events", "title": "Events Observation Class", "type": "Class"}, "parentProduct": {"href": "/mdr/cdashig/1-1-1", "title": "Clinical Data Acquisition Standards Harmonization (CDASH) User Guide V1.1", "type": "Implementation Guide"}, "self": {"href": "/mdr/cdashig/1-1-1/domains/DS", "title": "Disposition", "type": "CDASH Domain"}}, "fields": [{"_links": {"parentDomain": {"href": "/mdr/cdashig/1-1-1/domains/DS", "title": "Disposition", "type": "CDASH Domain"}, "parentProduct": {"href": "/mdr/cdashig/1-1-1", "title": "Clinical Data Acquisition Standards Harmonization (CDASH) User Guide V1.1", "type": "Implementation Guide"}, "rootItem": {"href": "/mdr/root/cdashig/domains/DS/fields/EPOCH", "title": "Version-agnostic anchor element for field DS.EPOCH", "type": "Root Data Element"}, "sdtmigDatasetMappingTargets": [{"href": "/mdr/sdtmig/3-1-2/datasets/DS/variables/EPOCH", "title": "Epoch", "type": "SDTM Dataset Variable"}], "self": {"href": "/mdr/cdashig/1-1-1/domains/DS/fields/EPOCH", "type": "Data Collection Field"}}, "completionInstructions": "Check the <epoch, or insert more appropriate wording> for which disposition is being recorded.", "core": "R/C", "definition": "Trial epoch (e.g., DOUBLE BLIND, SINGLE BLIND, TREATMENT, SCREENING, RUN IN) for which subject disposition is being collected.", "implementationNotes": "If disposition events are collected more than once in the study, EPOCH may be needed to differentiate them. Typically, the trial epoch will be pre-printed on the CRF as the title of the page; however, some companies have a standard CRF module that includes a pick-list of epochs. See SDTM IG for further information regarding EPOCH.", "name": "EPOCH", "ordinal": "1", "prompt": "Trial Period", "questionText": "To which period of the trial does this disposition refer?", "simpleDatatype": "Char"}, {"_links": {"codelist": [{"href": "/mdr/root/ct/sdtmct/codelists/C66727", "title": "Version-agnostic anchor resource for codelist C66727", "type": "Root Value Domain"}], "parentDomain": {"href": "/mdr/cdashig/1-1-1/domains/DS", "title": "Disposition", "type": "CDASH Domain"}, "parentProduct": {"href": "/mdr/cdashig/1-1-1", "title": "Clinical Data Acquisition Standards Harmonization (CDASH) User Guide V1.1", "type": "Implementation Guide"}, "rootItem": {"href": "/mdr/root/cdashig/domains/DS/fields/DSDECOD", "title": "Version-agnostic anchor element for field DS.DSDECOD", "type": "Root Data Element"}, "sdtmigDatasetMappingTargets": [{"href": "/mdr/sdtmig/3-1-2/datasets/DS/variables/DSTERM", "title": "Reported Term for the Disposition Event", "type": "SDTM Dataset Variable"}, {"href": "/mdr/sdtmig/3-1-2/datasets/DS/variables/DSDECOD", "title": "Standardized Disposition Term", "type": "SDTM Dataset Variable"}], "self": {"href": "/mdr/cdashig/1-1-1/domains/DS/fields/DSDECOD", "type": "Data Collection Field"}}, "completionInstructions": "Document the subject's status at <insert text corresponding to the selected trial epoch>.  If the subject discontinued prematurely, record the primary reason for discontinuation.", "core": "R/C", "definition": "Describes whether a subject completed the study or a portion of a study (epoch) or the reason they did not complete. DSDECOD is the Standardized Disposition Term {NCOMPLT} (See Section 2.2.)", "implementationNotes": "DSDECOD can be used as the pre-printed coded list with DSTERM used to capture other specify, or DSDECOD can be used on its own.  For Sponsor- and/or study-specific reasons for discontinuation, it is recommended that these reasons be pre-printed on the CRF, with check boxes for completion wherever possible, as sub-categories of the appropriate DSDECOD item.  However, it is recommended to limiting the use of sponsor- and study-specific reasons in order to promote consistent use of terminology and hence permit the combination of data across multiple sponsors. Either DSTERM or DSDECOD must be on the CRF.  Both may be used if DSTERM is use as an Other, Specify field. *See the BRIDG model for complete path.", "mappingInstructions": "Maps directly to SDTM.  Both DSDECOD and DSTERM must be populated in SDTM.  If DSTERM was collected as an 'Other, Specify' free text, populate DSTERM with the free text and populate DSDECOD with the sponsor-defined standardized text.  If DSDECOD was collected with no free text, populate DSTERM and DSDECOD in SDTM with the DSDECOD value that was collected.", "name": "DSDECOD", "ordinal": "2", "prompt": "Status", "questionText": "What was the subject's status?", "simpleDatatype": "Char"}, {"_links": {"parentDomain": {"href": "/mdr/cdashig/1-1-1/domains/DS", "title": "Disposition", "type": "CDASH Domain"}, "parentProduct": {"href": "/mdr/cdashig/1-1-1", "title": "Clinical Data Acquisition Standards Harmonization (CDASH) User Guide V1.1", "type": "Implementation Guide"}, "rootItem": {"href": "/mdr/root/cdashig/domains/DS/fields/DSTERM", "title": "Version-agnostic anchor element for field DS.DSTERM", "type": "Root Data Element"}, "sdtmigDatasetMappingTargets": [{"href": "/mdr/sdtmig/3-1-2/datasets/DS/variables/DSDECOD", "title": "Standardized Disposition Term", "type": "SDTM Dataset Variable"}, {"href": "/mdr/sdtmig/3-1-2/datasets/DS/variables/DSTERM", "title": "Reported Term for the Disposition Event", "type": "SDTM Dataset Variable"}], "self": {"href": "/mdr/cdashig/1-1-1/domains/DS/fields/DSTERM", "type": "Data Collection Field"}}, "completionInstructions": "Document the subject's status at <insert text corresponding to the selected trial epoch>.  If the subject discontinued prematurely, record the primary reason for discontinuation. (Or, if used with a DECOD list), if Other is selected from the Status list, provide the verbatim reason.", "core": "R/C", "definition": "A free text field that captures how a subject completed the study or a portion of a study (epoch) or the reason they did not complete. (Or if used with a DECOD list), free text description of the subject's \"Other\" status.", "implementationNotes": "DSTERM is the verbatim term for subject status when Other is selected from the DSDECOD code list.  This field would only be used with the Prompt and Completion Instructions provided as an Other, Specify field in conjunction with DSDECODE. DSTERM may be used by itself when no code list is provided for DSDECODE on the CRF. Either DSTERM or DSDECODE must be on the CRF.   *See the BRIDG model for complete path.", "mappingInstructions": "Maps directly to SDTM.  Both DSDECOD and DSTERM must be populated in SDTM.  If DSTERM was collected as an 'Other, Specify' free text, populate DSTERM with the free text and populate DSDECOD with the sponsor-defined standardized text.  If DSDECOD was collected with no free text, populate DSTERM and DSDECOD in SDTM with the DSDECOD value that was collected.", "name": "DSTERM", "ordinal": "3", "prompt": "Specify status", "questionText": "Specify Status", "simpleDatatype": "Char"}, {"_links": {"parentDomain": {"href": "/mdr/cdashig/1-1-1/domains/DS", "title": "Disposition", "type": "CDASH Domain"}, "parentProduct": {"href": "/mdr/cdashig/1-1-1", "title": "Clinical Data Acquisition Standards Harmonization (CDASH) User Guide V1.1", "type": "Implementation Guide"}, "rootItem": {"href": "/mdr/root/cdashig/domains/DS/fields/DSSTDAT", "title": "Version-agnostic anchor element for field DS.DSSTDAT", "type": "Root Data Element"}, "sdtmigDatasetMappingTargets": [{"href": "/mdr/sdtmig/3-1-2/datasets/DS/variables/DSSTDTC", "title": "Start Date/Time of Disposition Event", "type": "SDTM Dataset Variable"}], "self": {"href": "/mdr/cdashig/1-1-1/domains/DS/fields/DSSTDAT", "type": "Data Collection Field"}}, "completionInstructions": "Record the date of <protocol milestone/disposition event> as defined in the protocol and/or CRF Completion Instructions using this format (DD-MON-YYYY).", "core": "R/C", "definition": "The date of the specified protocol milestone (e.g. informed consent, randomization) or disposition event (e.g. study completion or discontinuation).", "implementationNotes": "Define in the protocol and/or CRF Completion Instructions the criteria for completion of each protocol milestone or disposition event for which a disposition CRF will be provided.  . Only collect the date of each protocol milestone or disposition event once.  For example, if the date of the last dose is defined to mark the end of the Treatment Phase epoch, and is collected on the Exposure form, then this field would not be collected on the Disposition CRF module.  If not collected elsewhere, this variable should be collected on the Disposition CRF module. For the SDTM-based dataset, the SDTM IG variable DSSTDTC is derived by concatenating CDASH Date (DSSTDAT) and Time of Completion or Discontinuation ((DSSTTIM if time is collected) and converting into  ISO 8601 format. For more detail see the Best Practice section. This field does not map directly to an SDTM variable. *See the BRIDG model for complete path.", "mappingInstructions": "For the SDTM dataset, the SDTM variable --STDTC is derived by concatenating CDASH Start Date and Time (if time is applicable) into --STDTC using the ISO 8601 format.", "name": "DSSTDAT", "ordinal": "4", "prompt": "<protocol milestone/disposition event> date", "questionText": "What was the date of <protocol milestone/ disposition event>?", "simpleDatatype": "Date (dd-MON-yyyy)"}, {"_links": {"parentDomain": {"href": "/mdr/cdashig/1-1-1/domains/DS", "title": "Disposition", "type": "CDASH Domain"}, "parentProduct": {"href": "/mdr/cdashig/1-1-1", "title": "Clinical Data Acquisition Standards Harmonization (CDASH) User Guide V1.1", "type": "Implementation Guide"}, "rootItem": {"href": "/mdr/root/cdashig/domains/DS/fields/DSSTTIM", "title": "Version-agnostic anchor element for field DS.DSSTTIM", "type": "Root Data Element"}, "sdtmigDatasetMappingTargets": [{"href": "/mdr/sdtmig/3-1-2/datasets/DS/variables/DSSTDTC", "title": "Start Date/Time of Disposition Event", "type": "SDTM Dataset Variable"}], "self": {"href": "/mdr/cdashig/1-1-1/domains/DS/fields/DSSTTIM", "type": "Data Collection Field"}}, "completionInstructions": "Record the time (as complete as possible) that the subject completed the study or portion of the study as defined in the protocol and/or CRF Completion Instructions.  If the subject did not complete the study or portion of the study, record the time (as complete as possible) as defined in the protocol and/or CRF Completion Instructions.", "core": "O", "definition": "The time that the subject completed the study or portion of the study or the date that the subject discontinued.", "implementationNotes": "Define in the protocol and/or CRF Completion Instructions the criteria for completion of each epoch for which a disposition CRF will be provided.  Define also the date of completion or discontinuation.  Collecting the time of completion or discontinuation is only appropriate if it can be realistically determined and if there is a scientific reason for needing to know this level of detail.  Typically, it is not recommended that a time be collected unless the subject is under the direct care of the site at the time of the event. Only collect the time of completion or discontinuation on the disposition CRF module if the same information is not being collected on another CRF module.  For example, if the time of the last dose is defined to mark the end of the Treatment Phase epoch, and is collected on the Drug Exposure form, then this field would not be collected on the Disposition CRF module. For the SDTM-based dataset, the SDTM IG variable DSSTDTC is derived by concatenating CDASH Date (DSSTDAT) and Time  of Completion or Discontinuation (DSSTTIM) if time is collected) and converting into  ISO 8601 format. For more detail see the Best Practice section. This field does not map directly to an SDTM variable. *See the BRIDG model for complete path.", "mappingInstructions": "For the SDTM dataset, the SDTM variable --STDTC is derived by concatenating CDASH Start Date and Time (if time is applicable) into --STDTC using the ISO 8601 format.", "name": "DSSTTIM", "ordinal": "5", "prompt": "Completion or Discontinuation Time", "questionText": "What was the time of <protocol milestone/ disposition event>?", "simpleDatatype": "Time (24 hour)"}, {"_links": {"codelist": [{"href": "/mdr/root/ct/sdtmct/codelists/C66742", "title": "Version-agnostic anchor resource for codelist C66742", "type": "Root Value Domain"}], "parentDomain": {"href": "/mdr/cdashig/1-1-1/domains/DS", "title": "Disposition", "type": "CDASH Domain"}, "parentProduct": {"href": "/mdr/cdashig/1-1-1", "title": "Clinical Data Acquisition Standards Harmonization (CDASH) User Guide V1.1", "type": "Implementation Guide"}, "rootItem": {"href": "/mdr/root/cdashig/domains/DS/fields/DSUNBLND", "title": "Version-agnostic anchor element for field DS.DSUNBLND", "type": "Root Data Element"}, "self": {"href": "/mdr/cdashig/1-1-1/domains/DS/fields/DSUNBLND", "type": "Data Collection Field"}}, "completionInstructions": "Was the subject's treatment assignment unblinded by the site?", "core": "O", "definition": "Identifies in a blinded trial whether or not the subject's blind was broken by the site.  {NY} (See Section 2.2.)", "implementationNotes": "This field does not map directly to an SDTM variable.", "mappingInstructions": "If DSUNBLIND = 'Y', then DSDECOD = 'TREATMENT UNBLINDED' and 'DSCAT' = 'OTHER EVENT'.  If DSUNBLIND = 'N', then the CRF should be annotated to indicate that this value is NOT SUBMITTED.", "name": "DSUNBLND", "ordinal": "6", "prompt": "Unblinded", "questionText": "Was treatment unblinded by the site?", "simpleDatatype": "Char"}, {"_links": {"codelist": [{"href": "/mdr/root/ct/sdtmct/codelist