{"_links": {"model": {"href": "/mdr/cdash/1-0", "title": "Clinical Data Acquisition Standards Harmonization Model Version 1.0", "type": "Foundational Model"}, "priorVersion": {"href": "/mdr/cdashig/1-1-1", "title": "Clinical Data Acquisition Standards Harmonization (CDASH) User Guide V1.1", "type": "Implementation Guide"}, "self": {"href": "/mdr/cdashig/2-0", "title": "Clinical Data Acquisition Standards Harmonization Implementation Guide for Human Clinical Trials Version 2.0", "type": "Implementation Guide"}}, "classes": [{"_links": {"modelClass": {"href": "/mdr/cdash/1-0/classes/Interventions", "title": "Interventions Observation Class", "type": "Class"}, "parentProduct": {"href": "/mdr/cdashig/2-0", "title": "Clinical Data Acquisition Standards Harmonization Implementation Guide for Human Clinical Trials Version 2.0", "type": "Implementation Guide"}, "priorVersion": {"href": "/mdr/cdashig/1-1-1/classes/Interventions", "title": "Interventions Observation Class", "type": "Class"}, "self": {"href": "/mdr/cdashig/2-0/classes/Interventions", "title": "Interventions Observation Class", "type": "Class"}}, "description": "The Interventions class includes CDASH domains that define collection standards for investigational treatments, therapeutic treatments, and procedures that are intentionally administered to the subject either as specified by the study protocol (e.g., exposure), coincident with the study assessment period (e.g., concomitant medications), or self-administered by the subject (such as alcohol, tobacco, or caffeine). (Source: CDASHIG v2.0, Section 8.1)", "domains": [{"_links": {"parentClass": {"href": "/mdr/cdashig/2-0/classes/Interventions", "title": "Interventions Observation Class", "type": "Class"}, "parentProduct": {"href": "/mdr/cdashig/2-0", "title": "Clinical Data Acquisition Standards Harmonization Implementation Guide for Human Clinical Trials Version 2.0", "type": "Implementation Guide"}, "priorVersion": {"href": "/mdr/cdashig/1-1-1/domains/CM", "title": "Prior and Concomitant Medications", "type": "CDASH Domain"}, "self": {"href": "/mdr/cdashig/2-0/domains/CM", "title": "Concomitant Medications", "type": "CDASH Domain"}}, "fields": [{"_links": {"implements": {"href": "/mdr/cdash/1-0/classes/Identifiers/fields/STUDYID", "title": "Study Identifier", "type": "Class Variable"}, "parentDomain": {"href": "/mdr/cdashig/2-0/domains/CM", "title": "Concomitant Medications", "type": "CDASH Domain"}, "parentProduct": {"href": "/mdr/cdashig/2-0", "title": "Clinical Data Acquisition Standards Harmonization Implementation Guide for Human Clinical Trials Version 2.0", "type": "Implementation Guide"}, "priorVersion": {"href": "/mdr/cdashig/1-1-1/domains/CM/fields/STUDYID", "type": "Data Collection Field"}, "rootItem": {"href": "/mdr/root/cdashig/domains/CM/fields/STUDYID", "title": "Version-agnostic anchor element for field CM.STUDYID", "type": "Root Data Element"}, "sdtmigDatasetMappingTargets": [{"href": "/mdr/sdtmig/3-2/datasets/CM/variables/STUDYID", "title": "Study Identifier", "type": "SDTM Dataset Variable"}], "self": {"href": "/mdr/cdashig/2-0/domains/CM/fields/STUDYID", "title": "Study Identifier", "type": "Data Collection Field"}}, "core": "HR", "definition": "A unique identifier for a study.", "implementationNotes": "While this field is not typically captured on a CRF, it should be displayed clearly on the CRF and/or the EDC system. This field can be included into the database or populated during SDTM-based dataset creation before submission.", "label": "Study Identifier", "mappingInstructions": "Maps directly to the SDTMIG variable listed in the column with the heading \"SDTMIG Target\".", "name": "STUDYID", "ordinal": "1", "prompt": "[Protocol/Study]", "questionText": "What is the study identifier?", "simpleDatatype": "Char"}, {"_links": {"implements": {"href": "/mdr/cdash/1-0/domains/DM/fields/SITEID", "title": "Study Site Identifier", "type": "Data Collection Field"}, "parentDomain": {"href": "/mdr/cdashig/2-0/domains/CM", "title": "Concomitant Medications", "type": "CDASH Domain"}, "parentProduct": {"href": "/mdr/cdashig/2-0", "title": "Clinical Data Acquisition Standards Harmonization Implementation Guide for Human Clinical Trials Version 2.0", "type": "Implementation Guide"}, "priorVersion": {"href": "/mdr/cdashig/1-1-1/domains/CM/fields/SITEID", "type": "Data Collection Field"}, "rootItem": {"href": "/mdr/root/cdashig/domains/CM/fields/SITEID", "title": "Version-agnostic anchor element for field CM.SITEID", "type": "Root Data Element"}, "sdtmigDatasetMappingTargets": [{"href": "/mdr/sdtmig/3-2/datasets/DM/variables/SITEID", "title": "Study Site Identifier", "type": "SDTM Dataset Variable"}], "self": {"href": "/mdr/cdashig/2-0/domains/CM/fields/SITEID", "title": "Study Site Identifier", "type": "Data Collection Field"}}, "core": "HR", "definition": "A unique identifier for a site within a study.", "implementationNotes": "Paper: This is typically preprinted in the header of each CRF page for single site studies. For studies with multiple sites, this field may be left blank so that the number can be recorded by the site, or it may be preprinted for the CRFs that are shipped to each site. EDC: This should be prepopulated.", "label": "Study Site Identifier", "mappingInstructions": "Maps directly to the SDTMIG variable listed in the column with the heading \"SDTMIG Target\".", "name": "SITEID", "ordinal": "2", "prompt": "Site (Identifier)", "questionText": "What is the site identifier?", "simpleDatatype": "Char"}, {"_links": {"implements": {"href": "/mdr/cdash/1-0/classes/Identifiers/fields/SUBJID", "title": "Subject Identifier for the Study", "type": "Class Variable"}, "parentDomain": {"href": "/mdr/cdashig/2-0/domains/CM", "title": "Concomitant Medications", "type": "CDASH Domain"}, "parentProduct": {"href": "/mdr/cdashig/2-0", "title": "Clinical Data Acquisition Standards Harmonization Implementation Guide for Human Clinical Trials Version 2.0", "type": "Implementation Guide"}, "priorVersion": {"href": "/mdr/cdashig/1-1-1/domains/CM/fields/SUBJID", "type": "Data Collection Field"}, "rootItem": {"href": "/mdr/root/cdashig/domains/CM/fields/SUBJID", "title": "Version-agnostic anchor element for field CM.SUBJID", "type": "Root Data Element"}, "sdtmigDatasetMappingTargets": [{"href": "/mdr/sdtmig/3-2/datasets/DM/variables/SUBJID", "title": "Subject Identifier for the Study", "type": "SDTM Dataset Variable"}], "self": {"href": "/mdr/cdashig/2-0/domains/CM/fields/SUBJID", "title": "Subject Identifier for the Study", "type": "Data Collection Field"}}, "completionInstructions": "Record the identifier for the subject.", "core": "HR", "definition": "A unique subject identifier within a site and a study.", "implementationNotes": "Paper: This is typically recorded in the header of each CRF page. EDC: The subject identifiers may be provided to the site using a pre-populated list in the system. This CDASH variable is typically collected in all CDASH domains. However, this CDASH variable is populated only in the SDTMIG DM domain. For more information, refer to Study Data Tabulation Model.", "label": "Subject Identifier for the Study", "mappingInstructions": "Maps directly to the SDTMIG variable listed in the column with the heading \"SDTMIG Target\".", "name": "SUBJID", "ordinal": "3", "prompt": "Subject", "questionText": "What is the subject identifier?", "simpleDatatype": "Char"}, {"_links": {"implements": {"href": "/mdr/cdash/1-0/classes/Interventions/fields/--CAT", "title": "Category", "type": "Class Variable"}, "parentDomain": {"href": "/mdr/cdashig/2-0/domains/CM", "title": "Concomitant Medications", "type": "CDASH Domain"}, "parentProduct": {"href": "/mdr/cdashig/2-0", "title": "Clinical Data Acquisition Standards Harmonization Implementation Guide for Human Clinical Trials Version 2.0", "type": "Implementation Guide"}, "rootItem": {"href": "/mdr/root/cdashig/domains/CM/fields/CMCAT", "title": "Version-agnostic anchor element for field CM.CMCAT", "type": "Root Data Element"}, "sdtmigDatasetMappingTargets": [{"href": "/mdr/sdtmig/3-2/datasets/CM/variables/CMCAT", "title": "Category for Medication", "type": "SDTM Dataset Variable"}], "self": {"href": "/mdr/cdashig/2-0/domains/CM/fields/CMCAT", "title": "Category for Concomitant Medication", "type": "Data Collection Field"}}, "completionInstructions": "Record the (concomitant) [medication/treatment/therapy] category, if not pre-printed on the CRF.", "core": "O", "definition": "A grouping of topic-variable values based on user defined characteristics.", "implementationNotes": "Sponsor-defined Controlled Terminology. This would most commonly be either a heading, or a pre-printed category value on the CRF and not a question to which the site would provide an answer. If a question is asked, the response would typically be a sponsor-defined codelist. If the form is laid out as a grid, then words such as \"Category\" can be included as the column header.", "label": "Category for Concomitant Medication", "mappingInstructions": "Maps directly to the SDTMIG variable listed in the column with the heading \"SDTMIG Target\".", "name": "CMCAT", "ordinal": "4", "prompt": "(Concomitant) [Medication/Treatment/Therapy Category]; NULL", "questionText": "What is the category for the (concomitant) [medication/treatment/therapy]?", "simpleDatatype": "Char"}, {"_links": {"implements": {"href": "/mdr/cdash/1-0/classes/Interventions/fields/--SCAT", "title": "Subcategory", "type": "Class Variable"}, "parentDomain": {"href": "/mdr/cdashig/2-0/domains/CM", "title": "Concomitant Medications", "type": "CDASH Domain"}, "parentProduct": {"href": "/mdr/cdashig/2-0", "title": "Clinical Data Acquisition Standards Harmonization Implementation Guide for Human Clinical Trials Version 2.0", "type": "Implementation Guide"}, "rootItem": {"href": "/mdr/root/cdashig/domains/CM/fields/CMSCAT", "title": "Version-agnostic anchor element for field CM.CMSCAT", "type": "Root Data Element"}, "sdtmigDatasetMappingTargets": [{"href": "/mdr/sdtmig/3-2/datasets/CM/variables/CMSCAT", "title": "Subcategory for Medication", "type": "SDTM Dataset Variable"}], "self": {"href": "/mdr/cdashig/2-0/domains/CM/fields/CMSCAT", "title": "Subcategory for Concomitant Medication", "type": "Data Collection Field"}}, "completionInstructions": "Record (concomitant) [medication/treatment/therapy] subcategory, if not pre-printed on the CRF.", "core": "O", "definition": "A sub-division of the CMCAT values based on user defined characteristics.", "implementationNotes": "Sponsor-defined Controlled Terminology. This would most commonly be pre-printed on the CRF or screen and pre-populated in the data management system. This is not typically a question to which the site would provide an answer.", "label": "Subcategory for Concomitant Medication", "mappingInstructions": "Maps directly to the SDTMIG variable listed in the column with the heading \"SDTMIG Target\".", "name": "CMSCAT", "ordinal": "5", "prompt": "(Concomitant) [Medication/Treatment/Therapy subcategory]; NULL", "questionText": "What is the subcategory for the (concomitant) [medication/treatment/therapy]?", "simpleDatatype": "Char"}, {"_links": {"codelist": [{"href": "/mdr/root/ct/sdtmct/codelists/C66742", "title": "Version-agnostic anchor resource for codelist C66742", "type": "Root Value Domain"}], "implements": {"href": "/mdr/cdash/1-0/classes/Interventions/fields/--YN", "title": "Any [Intervention]", "type": "Class Variable"}, "parentDomain": {"href": "/mdr/cdashig/2-0/domains/CM", "title": "Concomitant Medications", "type": "CDASH Domain"}, "parentProduct": {"href": "/mdr/cdashig/2-0", "title": "Clinical Data Acquisition Standards Harmonization Implementation Guide for Human Clinical Trials Version 2.0", "type": "Implementation Guide"}, "priorVersion": {"href": "/mdr/cdashig/1-1-1/domains/CM/fields/CMYN", "type": "Data Collection Field"}, "rootItem": {"href": "/mdr/root/cdashig/domains/CM/fields/CMYN", "title": "Version-agnostic anchor element for field CM.CMYN", "type": "Root Data Element"}, "self": {"href": "/mdr/cdashig/2-0/domains/CM/fields/CMYN", "title": "Any Concomitant Medications Taken", "type": "Data Collection Field"}}, "completionInstructions": "Indicate if the subject took any (concomitant) [medications/treatments]. If Yes, include the appropriate details where indicated on the CRF.", "core": "O", "definition": "An indication whether or not any (concomitant) medications/treatments/therapies were taken/given.", "implementationNotes": "The intent/purpose of collecting this field is to help with data cleaning and monitoring. It provides verification that all other fields on the CRF were deliberately left blank.", "label": "Any Concomitant Medications Taken", "mappingInstructions": "Does not map to an SDTMIG variable. The SDTM Annotated CRF is annotated to indicate that this field is NOT SUBMITTED.", "name": "CMYN", "ordinal": "6", "prompt": "Any (Concomitant) [Medication(s)/Treatment(s)/Therap(ies)]", "questionText": "Were any (concomitant) [medication(s)/treatment(s)/therap(ies)] taken?", "simpleDatatype": "Char"}, {"_links": {"implements": {"href": "/mdr/cdash/1-0/classes/Identifiers/fields/--SPID", "title": "Sponsor-Defined Identifier", "type": "Class Variable"}, "parentDomain": {"href": "/mdr/cdashig/2-0/domains/CM", "title": "Concomitant Medications", "type": "CDASH Domain"}, "parentProduct": {"href": "/mdr/cdashig/2-0", "title": "Clinical Data Acquisition Standards Harmonization Implementation Guide for Human Clinical Trials Version 2.0", "type": "Implementation Guide"}, "priorVersion": {"href": "/mdr/cdashig/1-1-1/domains/CM/fields/CMSPID", "type": "Data Collection Field"}, "rootItem": {"href": "/mdr/root/cdashig/domains/CM/fields/CMSPID", "title": "Version-agnostic anchor element for field CM.CMSPID", "type": "Root Data Element"}, "sdtmigDatasetMappingTargets": [{"href": "/mdr/sdtmig/3-2/datasets/CM/variables/CMSPID", "title": "Sponsor-Defined Identifier", "type": "SDTM Dataset Variable"}], "self": {"href": "/mdr/cdashig/2-0/domains/CM/fields/CMSPID", "title": "Concomitant Meds Sponsor-Defined Identifier", "type": "Data Collection Field"}}, "completionInstructions": "If collected on the CRF, sponsor may insert instructions to ensure each record has a unique identifier.", "core": "O", "definition": "A sponsor-defined identifier which can be used for pre-printed or auto-generated numbers on the CRF.", "implementationNotes": "Since SPID is a sponsor-defined identifier, conformance to Question Text or Item Prompt is not applicable. Typically used as an identifier in a data query to communicate clearly to the site the specific record in question or to reconcile concomitant medication/treatment records with AEs and/or Medical History. May be used to record pre-printed number (e.g. line number, record number) on the CRF. This field may be populated by the sponsor's data collection system.", "label": "Concomitant Meds Sponsor-Defined Identifier", "mappingInstructions": "Maps directly to the SDTMIG variable listed in the column with the heading \"SDTMIG Target\". May be used to create RELREC to link this record with a record in another domain.", "name": "CMSPID", "ordinal": "7", "prompt": "[Line Number/CM Number]", "questionText": "What is the (concomitant) [medication/treatment/therapy] identifier?", "simpleDatatype": "Char"}, {"_links": {"implements": {"href": "/mdr/cdash/1-0/classes/Interventions/fields/--TRT", "title": "Name of Treatment", "type": "Class Variable"}, "parentDomain": {"href": "/mdr/cdashig/2-0/domains/CM", "title": "Concomitant Medications", "type": "CDASH Domain"}, "parentProduct": {"href": "/mdr/cdashig/2-0", "title": "Clinical Data Acquisition Standards Harmonization Implementation Guide for Human Clinical Trials Version 2.0", "type": "Implementation Guide"}, "priorVersion": {"href": "/mdr/cdashig/1-1-1/domains/CM/fields/CMTRT", "type": "Data Collection Field"}, "rootItem": {"href": "/mdr/root/cdashig/domains/CM/fields/CMTRT", "title": "Version-agnostic anchor element for field CM.CMTRT", "type": "Root Data Element"}, "sdtmigDatasetMappingTargets": [{"href": "/mdr/sdtmig/3-2/datasets/CM/variables/CMTRT", "title": "Reported Name of Drug, Med, or Therapy", "type": "SDTM Dataset Variable"}], "self": {"href": "/mdr/cdashig/2-0/domains/CM/fields/CMTRT", "title": "Concomitant Medication Name", "type": "Data Collection Field"}}, "completionInstructions": "Record only one [medication/treatment/therapy] per line. Provide the full trade or proprietary name of the [medication/treatment/therapy]; otherwise the generic name may be recorded.", "core": "HR", "definition": "Verbatim medication name or treatments (include only treatments with data collection characteristics similar to medications).", "implementationNotes": "In most cases, the verbatim drug names or treatment will be coded to a standard dictionary such as WHO DRUG after the data have been collected on the CRF. For the collection of verbatim drug name or treatments , the recommendation is to ask the sites to provide the full trade or proprietary name since it is more exact than the generic. The full trade name provides the base generic and the appropriate salt for that particular drug. In addition, for coding purposes it helps with ATC selection. For example, Tylenol with codeine #1 has a different ATC code from Tylenol with codeine #3. This field can be used for either prior or concomitant medication/treatments.", "label": "Concomitant Medication Name", "mappingInstructions": "Maps directly to the SDTMIG variable listed in the column with the heading \"SDTMIG Target\".", "name": "CMTRT", "ordinal": "8", "prompt": "(Concomitant) [Medication/Treatment/Therapy]", "questionText": "What was the (concomitant) [medication/treatment/therapy] (name/term)?", "simpleDatatype": "Char"}, {"_links": {"codelist": [{"href": "/mdr/root/ct/sdtmct/codelists/C66742", "title": "Version-agnostic anchor resource for codelist C66742", "type": "Root Value Domain"}], "implements": {"href": "/mdr/cdash/1-0/classes/Interventions/fields/--OCCUR", "title": "Occurrence", "type": "Class Variable"}, "parentDomain": {"href": "/mdr/cdashig/2-0/domains/CM", "title": "Concomitant Medications", "type": "CDASH Domain"}, "parentProduct": {"href": "/mdr/cdashig/2-0", "title": "Clinical Data Acquisition Standards Harmonization Implementation Guide for Human Clinical Trials Version 2.0", "type": "Implementation Guide"}, "priorVersion": {"href": "/mdr/cdashig/1-1-1/domains/CM/fields/CMOCCUR", "type": "Data Collection Field"}, "rootItem": {"href": "/mdr/root/cdashig/domains/CM/fields/CMOCCUR", "title": "Version-agnostic anchor element for field CM.CMOCCUR", "type": "Root Data Element"}, "sdtmigDatasetMappingTargets": [{"href": "/mdr/sdtmig/3-2/datasets/CM/variables/CMOCCUR", "title": "CM Occurrence", "type": "SDTM Dataset Variable"}], "self": {"href": "/mdr/cdashig/2-0/domains/CM/fields/CMOCCUR", "title": "Concomitant Meds Occurrence", "type": "Data Collection Field"}}, "completionInstructions": "Indicate if [specific medication/treatment] was taken by checking Yes or No.", "core": "O", "definition": "An indication whether the pre-specified medication/treatment/therapy (CMTRT) or the group of medications/treatments/therapies was administered when information about the occurrence of a specific intervention is solicited.", "implementationNotes": "CMOCCUR is used to report the occurrence of a pre-specific medication/treatment. CMOCCUR is not used for spontaneously free text reported concomitant medication/treatments. The site should be able to indicate that the response was not asked or answered.", "label": "Concomitant Meds Occurrence", "mappingInstructions": "Maps directly to the SDTMIG variable listed in the column with the heading \"SDTMIG Target\". If the response was not asked or answered, populate the SDTMIG variable CMSTAT with \"NOT DONE\".", "name": "CMOCCUR", "ordinal": "9", "prompt": "[Specific (Concomitant) [Medication/Treatment/Therapy]", "questionText": "Did the subject take [pre-specified (concomitant) medication/treatment/therapy/dose]?; Has the subject taken [pre-specified (concomitant) medication/treatment/therapy/dose]?", "simpleDatatype": "Char"}, {"_links": {"implements": {"href": "/mdr/cdash/1-0/classes/Interventions/fields/--INGRD", "title": "Active Ingredients", "type": "Class Variable"}, "parentDomain": {"href": "/mdr/cdashig/2-0/domains/CM", "title": "Concomitant Medications", "type": "CDASH Domain"}, "parentProduct": {"href": "/mdr/cdashig/2-0", "title": "Clinical Data Acquisition Standards Harmonization Implementation Guide for Human Clinical Trials Version 2.0", "type": "Implementation Guide"}, "priorVersion": {"href": "/mdr/cdashig/1-1-1/domains/CM/fields/CMINGRD", "type": "Data Collection Field"}, "rootItem": {"href": "/mdr/root/cdashig/domains/CM/fields/CMINGRD", "title": "Version-agnostic anchor element for field CM.CMINGRD", "type": "Root Data Element"}, "self": {"href": "/mdr/cdashig/2-0/domains/CM/fields/CMINGRD", "title": "Concomitant Meds Active Ingredients", "type": "Data Collection Field"}}, "completionInstructions": "Prior to a subject's clinical visit, remind all subjects to bring all medications bottles, packs etc. they are taking with them to their clinical visit. Record all active ingredient(s) off the medication label and separate each ingredient with a comma for the name of drug medication or treatment taken. For example, the medication Dolmen, if manufactured in Spain, the active ingredients should be collected as noted below: Active Ingredient: Acetylsalicylic Acid, Ascorbic acid, codeine phosphate.", "core": "O", "definition": "Medication Ingredients.", "implementationNotes": "This may be collected in addition to the Medication/Treatment Name. Collecting this provides more detailed information when coding to a medication dictionary like WHO Drug Enhanced format C which now codes to the ingredient level for many trade named medications. For example, the medication Dolmen, depending on the country where it is manufactured, the active ingredients may be different. Spain: Acetylsalicylic Acid, Ascorbic acid, codeine phosphate Italy and Czech Republic: contains Tenoxicam Estonia and Latvia: contains Dexketoprofen trometamol.", "label": "Concomitant Meds Active Ingredients", "mappingInstructions": "Does not map to an SDTMIG variable. The SDTM Annotated CRF is annotated to indicate that this field is NOT SUBMITTED.", "name": "CMINGRD", "ordinal": "10", "prompt": "Active Ingredients", "questionText": "What were the active ingredients?", "simpleDatatype": "Char"}, {"_links": {"implements": {"href": "/mdr/cdash/1-0/classes/Interventions/fields/--INDC", "title": "Indication", "type": "Class Variable"}, "parentDomain": {"href": "/mdr/cdashig/2-0/domains/CM", "title": "Concomitant Medications", "type": "CDASH Domain"}, "parentProduct": {"href": "/mdr/cdashig/2-0", "title": "Clinical Data Acquisition Standards Harmonization Implementation Guide for Human Clinical Trials Version 2.0", "type": "Implementation Guide"}, "priorVersion": {"href": "/mdr/cdashig/1-1-1/domains/CM/fields/CMINDC", "type": "Data Collection Field"}, "rootItem": {"href": "/mdr/root/cdashig/domains/CM/fields/CMINDC", "title": "Version-agnostic anchor element for field CM.CMINDC", "type": "Root Data Element"}, "sdtmigDatasetMappingTargets": [{"href": "/mdr/sdtmig/3-2/datasets/CM/variables/CMINDC", "title": "Indication", "type": "SDTM Dataset Variable"}], "self": {"href": "/mdr/cdashig/2-0/domains/CM/fields/CMINDC", "title": "Concomitant Meds Indication", "type": "Data Collection Field"}}, "completionInstructions": "Record the reason the medication was taken based on clinical investigator's evaluation. If taken to treat a condition, and a diagnosis was made, the indication should be the diagnosis. If taken to treat a condition, and no diagnosis was made, the indication should be the signs and symptoms. If taken as prophylaxis, report as \"Prophylaxis for \" and include a description of the condition(s).", "core": "R/C", "definition": "The condition, disease, symptom or disorder that the concomitant (non-study) medication/treatment/therapy was used to address or investigate (e.g., why the medication/treatment/therapy was taken or administered).", "implementationNotes": "This is not the pharmacological/therapeutic classification of an agent (e.g., antibiotic, analgesic, etc.), but the reason for its administration to the subject. This additional information is collected on the CRF when the sponsor would want to capture the reason(s) why a subject took a medication/treatment. This information can then be used as deemed appropriate for coding, analysis (i.e., in the classification of medications), for reconciling the medications/treatments taken by a subject with their provided medical history and/or AEs/SAEs as part of the data clean-up and monitoring process, etc.", "label": "Concomitant Meds Indication", "mappingInstructions": "Maps directly to the SDTMIG variable listed in the column with the heading \"SDTMIG Target\".", "name": "CMINDC", "ordinal": "11", "prompt": "Indication", "questionText": "For what indication, was the (concomitant) [medication/treatment/therapy] taken?", "simpleDatatype": "Char"}, {"_links": {"implements": {"href": "/mdr/cdash/1-0/classes/Identifiers/fields/--AENO", "title": "Related Adverse Event ID", "type": "Class Variable"}, "parentDomain": {"href": "/mdr/cdashig/2-0/domains/CM", "title": "Concomitant Medications", "type": "CDASH Domain"}, "parentProduct": {"href": "/mdr/cdashig/2-0", "title": "Clinical Data Acquisition Standards Harmonization Implementation Guide for Human Clinical Trials Version 2.0", "type": "Implementation Guide"}, "priorVersion": {"href": "/mdr/cdashig/1-1-1/domains/CM/fields/CMAENO", "type": "Data Collection Field"}, "rootItem": {"href": "/mdr/root/cdashig/domains/CM/fields/CMAENO", "title": "Version-agnostic anchor element for field CM.CMAENO", "type": "Root Data Element"}, "self": {"href": "/mdr/cdashig/2-0/domains/CM/fields/CMAENO", "title": "Related Adverse Event ID", "type": "Data Collection Field"}}, "completionInstructions": "Record the identifier of the Adverse Event for which this (concomitant) [medication/treatment/therapy] was taken.", "core": "O", "definition": "Identifier for the adverse event that is the indication for this medication/treatment/therapy.", "implementationNotes": "Intent is to establish a link between the medication/treatment and the AE that was reported. CMAENO can be used to identify a relationship between records in CM dataset and records in the AE dataset. See section 8.2 in the SDTMIG V3.2 for information on RELREC.", "label": "Related Adverse Event ID", "mappingInstructions": "This does not map directly to an SDTMIG variable. For the SDTM submission datasets, may be used to create RELREC to link this record with a record in the Adverse Events domain.", "name": "CMAENO", "ordinal": "12", "prompt": "Adverse Event Identifier", "questionText": "What was the identifier for the adverse event(s) for which the (concomitant) [medication/treatment/therapy] was taken?", "simpleDatatype": "Char"}, {"_links": {"implements": {"href": "/mdr/cdash/1-0/classes/Identifiers/fields/--MHNO", "title": "Related Medical History Event ID", "type": "Class Variable"}, "parentDomain": {"href": "/mdr/cdashig/2-0/domains/CM", "title": "Concomitant Medications", "type": "CDASH Domain"}, "parentProduct": {"href": "/mdr/cdashig/2-0", "title": "Clinical Data Acquisition Standards Harmonization Implementation Guide for Human Clinical Trials Version 2.0", "type": "Implementation Guide"}, "priorVersion": {"href": "/mdr/cdashig/1-1-1/domains/CM/fields/CMMHNO", "type": "Data Collection Field"}, "rootItem": {"href": "/mdr/root/cdashig/domains/CM/fields/CMMHNO", "title": "Version-agnostic anchor element for field CM.CMMHNO", "type": "Root Data Element"}, "self": {"href": "/mdr/cdashig/2-0/domains/CM/fields/CMMHNO", "title": "Related Medical History Event ID", "type": "Data Collection Field"}}, "completionInstructions": "Record the identifier of the medical history event for which this (concomitant) [medication/treatment/therapy] was taken.", "core": "O", "definition": "Identifier for the medical history condition that is the indication for this medication/treatment/therapy.", "implementationNotes": "Intent is to establish a link between the medical history condition and the medication/treatment taken for the medical history condition. CMMHNO can be used to identify a relationship between records in the CM dataset and records in the MH dataset. See section 8.2 in the SDTMIG V3.2 for information on RELREC.", "label": "Related Medical History Event ID", "mappingInstructions": "This does not map directly to an SDTMIG variable. For the SDTM submission datasets, may be used to create RELREC to link this record with a record in the Medical History domain.", "name": "CMMHNO", "ordinal": "13", "prompt": "Medical History Event Identifier", "questionText": "What was the identifier for the medical history event(s) for which the (concomitant) [medication/treatment/therapy] was taken?", "simpleDatatype": "Char"}, {"_links": {"implements": {"href": "/mdr/cdash/1-0/classes/Interventions/fields/--DOSE", "title": "Dose", "type": "Class Variable"}, "parentDomain": {"href": "/mdr/cdashig/2-0/domains/CM", "title": "Concomitant Medications", "type": "CDASH Domain"}, "parentProduct": {"href": "/mdr/cdashig/2-0", "title": "Clinical Data Acquisition Standards Harmonization Implementation Guide for Human Clinical Trials Version 2.0", "type": "Implementation Guide"}, "rootItem": {"href": "/mdr/root/cdashig/domains/CM/fields/CMDOSE", "title": "Version-agnostic anchor element for field CM.CMDOSE", "type": "Root Data Element"}, "sdtmigDatasetMappingTargets": [{"href": "/mdr/sdtmig/3-2/datasets/CM/variables/CMDOSE", "title": "Dose per Administration", "type": "SDTM Dataset Variable"}], "self": {"href": "/mdr/cdashig/2-0/domains/CM/fields/CMDOSE", "title": "Concomitant Meds Dose", "type": "Data Collection Field"}}, "completionInstructions": "Record the dose of (concomitant) [medication/treatment] taken per administration (e.g., 200).", "core": "O", "definition": "The dose of medication/treatment (e.g. --TRT ) given at one time represented as a numeric value.", "implementationNotes": "Used when the dose/amount taken/administered/consumed has only numeric entries. If non-numeric entries are possible, use the CDASH field CMDSTXT.", "label": "Concomitant Meds Dose", "mappingInstructions": "Maps directly to the SDTMIG variable listed in the column with the heading \"SDTMIG Target\".", "name": "CMDOSE", "ordinal": "14", "prompt": "[Dose/Amount] (per administration)", "questionText": "What was the individual dose (of the concomitant [medication/treatment/therapy] per administration)?", "simpleDatatype": "Num"}, {"_links": {"implements": {"href": "/mdr/cdash/1-0/classes/Interventions/fields/--DSTXT", "title": "Dose Description", "type": "Class Variable"}, "parentDomain": {"href": "/mdr/cdashig/2-0/domains/CM", "title": "Concomitant Medications", "type": "CDASH Domain"}, "parentProduct": {"href": "/mdr/cdashig/2-0", "title": "Clinical Data Acquisition Standards Harmonization Implementation Guide for Human Clinical Trials Version 2.0", "type": "Implementation Guide"}, "priorVersion": {"href": "/mdr/cdashig/1-1-1/domains/CM/fields/CMDSTXT", "type": "Data Collection Field"}, "rootItem": {"href": "/mdr/root/cdashig/domains/CM/fields/CMDSTXT", "title": "Version-agnostic anchor element for field CM.CMDSTXT", "type": "Root Data Element"}, "sdtmigDatasetMappingTargets": [{"href": "/mdr/sdtmig/3-2/datasets/CM/variables/CMDOSTXT", "title": "Dose Description", "type": "SDTM Dataset Variable"}, {"href": "/mdr/sdtmig/3-2/datasets/CM/variables/CMDOSE", "title": "Dose per Administration", "type": "SDTM Dataset Variable"}], "self": {"href": "/mdr/cdashig/2-0/domains/CM/fields/CMDSTXT", "title": "Concomitant Meds Dose Description", "type": "Data Collection Field"}}, "completionInstructions": "Record the dose of (concomitant) [medication/treatment] taken per administration (e.g., 200).", "core": "O", "definition": "The dose of medication/treatment taken per administration.", "implementationNotes": "Defining this data collection field as a dose text field allows for flexibility in capturing dose entries as numbers, text or ranges. The data collected in this dose text-format field should be separated or mapped to either SDTMIG CMDOSE if numeric or CMDOSTXT if text.", "label": "Concomitant Meds Dose Description", "mappingInstructions": "This does not map directly to an SDTMIG variable. Numeric values map to CMDOSE in SDTM. Non-numeric values (e.g., 200-400) map to CMDOSTXT in SDTM.", "name": "CMDSTXT", "ordinal": "15", "prompt": "Dose", "questionText": "What was the individual dose of the (concomitant) [mediation/treatment/therapy]?", "simpleDatatype": "Char"}, {"_links": {"implements": {"href": "/mdr/cdash/1-0/classes/Interventions/fields/--DOSTOT", "title": "Total Daily Dose", "type": "Class Variable"}, "parentDomain": {"href": "/mdr/cdashig/2-0/domains/CM", "title": "Concomitant Medications", "type": "CDASH Domain"}, "parentProduct": {"href": "/mdr/cdashig/2-0", "title": "Clinical Data Acquisition Standards Harmonization Implementation Guide for Human Clinical Trials Version 2.0", "type": "Implementation Guide"}, "priorVersion": {"href": "/mdr/cdashig/1-1-1/domains/CM/fields/CMDOSTOT", "type": "Data Collection Field"}, "rootItem": {"href": "/mdr/root/cdashig/domains/CM/fields/CMDOSTOT", "title": "Version-agnostic anchor element for field CM.CMDOSTOT", "type": "Root Data Element"}, "sdtmigDatasetMappingTargets": [{"href": "/mdr/sdtmig/3-2/datasets/CM/variables/CMDOSTOT", "title": "Total Daily Dose", "type": "SDTM Dataset Variable"}], "self": {"href": "/mdr/cdashig/2-0/domains/CM/fields/CMDOSTOT", "title": "Concomitant Meds Total Daily Dose", "type": "Data Collection Field"}}, "completionInstructions": "Record the total dose of (concomitant) [medication/treatment/therapy] taken daily.", "core": "O", "definition": "The total amount of CMTRT taken over a day using the units in CMDOSU.", "implementationNotes": "For use when only total daily dose is collected in the CRF. For general medications/treatments, it is not recommended to use Total Daily Dose. Instead, this can be calculated from other fields such as Units, Dose, and Frequency.", "label": "Concomitant Meds Total Daily Dose", "mappingInstructions": "Maps directly to the SDTMIG variable listed in the column with the heading \"SDTMIG Target\".", "name": "CMDOSTOT", "ordinal": "16", "prompt": "Total Daily Dose", "questionText": "What was the total daily dose of the (concomitant) [medication/treatment/therapy]?", "simpleDatatype": "Char"}, {"_links": {"codelist": [{"href": "/mdr/root/ct/sdtmct/codelists/C71620", "title": "Version-agnostic anchor resource for codelist C71620", "type": "Root Value Domain"}, {"href": "/mdr/root/ct/cdashct/codelists/C78417", "title": "Version-agnostic anchor resource for codelist C78417", "type": "Root Value Domain"}], "implements": {"href": "/mdr/cdash/1-0/classes/Interventions/fields/--DOSU", "title": "Dose Unit", "type": "Class Variable"}, "parentDomain": {"href": "/mdr/cdashig/2-0/domains/CM", "title": "Concomitant Medications", "type": "CDASH Domain"}, "parentProduct": {"href": "/mdr/cdashig/2-0", "title": "Clinical Data Acquisition Standards Harmonization Implementation Guide for Human Clinical Trials Version 2.0", "type": "Implementation Guide"}, "priorVersion": {"href": "/mdr/cdashig/1-1-1/domains/CM/fields/CMDOSU", "type": "Data Collection Field"}, "rootItem": {"href": "/mdr/root/cdashig/domains/CM/fields/CMDOSU", "title": "Version-agnostic anchor element for field CM.CMDOSU", "type": "Root Data Element"}, "sdtmigDatasetMappingTargets": [{"href": "/mdr/sdtmig/3-2/datasets/CM/variables/CMDOSU", "title": "Dose Units", "type": "SDTM Dataset Variable"}], "self": {"href": "/mdr/cdashig/2-0/domains/CM/fields/CMDOSU", "title": "Concomitant Meds Dose Unit", "type": "Data Collection Field"}}, "completionInstructions": "Record the dose unit of the dose of concomitant [medication/treatment/therapy] taken (e.g., mg.).", "core": "R/C", "definition": "The unit associated with the concomitant medication/treatment/therapy taken (e.g., mg in \"2mg three times per day\").", "implementationNotes": "When sponsors collect data for amount of dose taken (i.e., Dose, Total Daily Dose), Unit must be collected as well (if applicable).", "label": "Concomitant Meds Dose Unit", "mappingInstructions": "Maps directly to the SDTMIG variable listed in the column with the heading \"SDTMIG Target\".", "name": "CMDOSU", "ordinal": "17", "prompt": "(Dose) Unit", "questionText": "What is the unit (for the dose of concomitant [medication/treatment/therapy])?", "simpleDatatype": "Char"}, {"_links": {"codelist": [{"href": "/mdr/root/ct/sdtmct/codelists/C66726", "title": "Version-agnostic anchor resource for codelist C66726", "type": "Root Value Domain"}, {"href": "/mdr/root/ct/cdashct/codelists/C78418", "title": "Version-agnostic anchor resource for codelist C78418", "type": "Root Value Domain"}], "implements": {"href": "/mdr/cdash/1-0/classes/Interventions/fields/--DOSFRM", "title": "Dose Form", "type": "Class Variable"}, "parentDomain": {"href": "/mdr/cdashig/2-0/domains/CM", "title": "Concomitant Medications", "type": "CDASH Domain"}, "parentProduct": {"href": "/mdr/cdashig/2-0", "title": "Clinical Data Acquisition Standards Harmonization Implementation Guide for Human Clinical Trials Version 2.0", "type": "Implementation Guide"}, "priorVersion": {"href": "/mdr/cdashig/1-1-1/domains/CM/fields/CMDOSFRM", "type": "Data Collection Field"}, "rootItem": {"href": "/mdr/root/cdashig/domains/CM/fields/CMDOSFRM", "title": "Version-agnostic anchor element for field CM.CMDOSFRM", "type": "Root Data Element"}, "sdtmigDatasetMappingTargets": [{"href": "/mdr/sdtmig/3-2/datasets/CM/variables/CMDOSFRM", "title": "Dose Form", "type": "SDTM Dataset Variable"}], "self": {"href": "/mdr/cdashig/2-0/domains/CM/fields/CMDOSFRM", "title": "Concomitant Meds Dose Form", "type": "Data Collection Field"}}, "completionInstructions": "Record the pharmaceutical dosage form (e.g., TABLET CAPSULE, SYRUP) of delivery for the concomitant [medication/treatment/therapy] taken.", "core": "O", "definition": "The pharmaceutical dosage form in which the CMTRT is physically presented.", "implementationNotes": "Some drugs have multiple forms and this field may be needed to code the drug to an ATC level. However, in general, this level of detail should not be necessary except for medications/treatments of interest.", "label": "Concomitant Meds Dose Form", "mappingInstructions": "Maps directly to the SDTMIG variable listed in the column with the heading \"SDTMIG Target\".", "name": "CMDOSFRM", "ordinal": "18", "prompt": "Dose Form", "questionText": "What was the dose form of the (concomitant) [medication/treatment/therapy]?", "simpleDatatype": "Char"}, {"_links": {"codelist": [{"href": "/mdr/root/ct/sdtmct/codelists/C71113", "title": "Version-agnostic anchor resource for codelist C71113", "type": "Root Value Domain"}, {"href": "/mdr/root/ct/cdashct/codelists/C78419", "title": "Version-agnostic anchor resource for codelist C78419", "type": "Root Value Domain"}], "implements": {"href": "/mdr/cdash/1-0/classes/Interventions/fields/--DOSFRQ", "title": "Dosing Frequency per Interval", "type": "Class Variable"}, "parentDomain": {"href": "/mdr/cdashig/2-0/domains/CM", "title": "Concomitant Medications", "type": "CDASH Domain"}, "parentProduct": {"href": "/mdr/cdashig/2-0", "title": "Clinical Data Acquisition Standards Harmonization Implementation Guide for Human Clinical Trials Version 2.0", "type": "Implementation Guide"}, "priorVersion": {"href": "/mdr/cdashig/1-1-1/domains/CM/fields/CMDOSFRQ", "type": "Data Collection Field"}, "rootItem": {"href": "/mdr/root/cdashig/domains/CM/fields/CMDOSFRQ", "title": "Version-agnostic anchor element for field CM.CMDOSFRQ", "type": "Root Data Element"}, "sdtmigDatasetMappingTargets": [{"href": "/mdr/sdtmig/3-2/datasets/CM/variables/CMDOSFRQ", "title": "Dosing Frequency per Interval", "type": "SDTM Dataset Variable"}], "self": {"href": "/mdr/cdashig/2-0/domains/CM/fields/CMDOSFRQ", "title": "Concomitant Meds Dosing Frequency per Interval", "type": "Data Collection Field"}}, "completionInstructions": "Record how often the (concomitant) [medication/treatment/therapy] was taken (e.g., BID, PRN).", "core": "O", "definition": "The number of doses given/administered/taken during a specific interval.", "implementationNotes": "The frequency of the concomitant medication/treatment. When collected, the recommendation is to collect dosing information in separate fields (e.g., CMDOSE, CMDOSEU, CMDOSFRQ) for specific and consistent data collection and to enable programmatically utilizing these data.", "label": "Concomitant Meds Dosing Frequency per Interval", "mappingInstructions": "Maps directly to the SDTMIG variable listed in the column with the heading \"SDTMIG Target\".", "name": "CMDOSFRQ", "ordinal": "19", "prompt": "Frequency", "questionText": "What was the frequency of the (concomitant) [medication/treatment/therapy]?", "simpleDatatype": "Char"}, {"_links": {"codelist": [{"href": "/mdr/root/ct/sdtmct/codelists/C66729", "title": "Version-agnostic anchor resource for codelist C66729", "type": "Root Value Domain"}, {"href": "/mdr/root/ct/cdashct/codelists/C78420", "title": "Version-agnostic anchor resource for codelist C78420", "type": "Root Value Domain"}], "implements": {"href": "/mdr/cdash/1-0/classes/Interventions/fields/--ROUTE", "title": "Route of Administration", "type": "Class Variable"}, "parentDomain": {"href": "/mdr/cdashig/2-0/domains/CM", "title": "Concomitant Medications", "type": "CDASH Domain"}, "parentProduct": {"href": "/mdr/cdashig/2-0", "title": "Clinical Data Acquisition Standards Harmonization Implementation Guide for Human Clinical Trials Version 2.0", "type": "Implementation Guide"}, "priorVersion": {"href": "/mdr/cdashig/1-1-1/domains/CM/fields/CMROUTE", "type": "Data Collection Field"}, "rootItem": {"href": "/mdr/root/cdashig/domains/CM/fields/CMROUTE", "title": "Version-agnostic anchor element for field CM.CMROUTE", "type": "Root Data Element"}, "sdtmigDatasetMappingTargets": [{"href": "/mdr/sdtmig/3-2/datasets/CM/variables/CMROUTE", "title": "Route of Administration", "type": "SDTM Dataset Variable"}], "self": {"href": "/mdr/cdashig/2-0/domains/CM/fields/CMROUTE", "title": "Concomitant Meds Route of Administration", "type": "Data Collection Field"}}, "completionInstructions": "Provide the route of administration for the (concomitant) [medication/treatment/therapy].", "core": "R/C", "definition": "The route of administration of the (concomitant) [medication/treatment/therapy].", "implementationNotes": "This additional information may be important to collect on the CRF when the sponsor would want to capture a medication's/treatment's route of administration for purposes such as coding and the medication/treatment may have more than one route. Some companies may use route in coding medications/treatments to be able to choose a precise preferred name and ATC code.", "label": "Concomitant Meds Route of Administration", "mappingInstructions": "Maps directly to the SDTMIG variable listed in the column with the heading \"SDTMIG Target\".", "name": "CMROUTE", "ordinal": "20", "prompt": "Route", "questionText": "What was the route of administration of the (concomitant) [medication/treatment/therapy]?", "simpleDatatype": "Char"}, {"_links": {"implements": {"href": "/mdr/cdash/1-0/classes/Timing/fields/--STDAT", "title": "Start Date of Observation", "type": "Class Variable"}, "parentDomain": {"href": "/mdr/cdashig/2-0/domains/CM", "title": "Concomitant Medications", "type": "CDASH Domain"}, "parentProduct": {"href": "/mdr/cdashig/2-0", "title": "Clinical Data Acquisition Standards Harmonization Implementation Guide for Human Clinical Trials Version 2.0", "type": "Implementation Guide"}, "priorVersion": {"href": "/mdr/cdashig/1-1-1/domains/CM/fields/CMSTDAT", "type": "Data Collection Field"}, "rootItem": {"href": "/mdr/root/cdashig/domains/CM/fields/CMSTDAT", "title": "Version-agnostic anchor element for field CM.CMSTDAT", "type": "Root Data Element"}, "sdtmigDatasetMappingTargets": [{"href": "/mdr/sdtmig/3-2/datasets/CM/variables/CMSTDTC", "title": "Start Date/Time of Medication", "type": "SDTM Dataset Variable"}], "self": {"href": "/mdr/cdashig/2-0/domains/CM/fields/CMSTDAT", "title": "Concomitant Meds Start Date", "type": "Data Collection Field"}}, "completionInstructions": "Record the date the concomitant [medication/treatment] was first taken using this format (DD-MON-YYYY). If the subject has been taking the concomitant [medication/treatment] for a considerable amount of time prior to the start of the study, it is acceptable to have an incomplete date. Concomitant [medication/treatment] taken during the study are expected to have a complete start date. Prior concomitant [medication/treatment] that are exclusionary should have both a start and end date.", "core": "R/C", "definition": "The start date when the concomitant medication/treatment/therapy was first taken represented in an unambiguous date format (e.g., DD-MON-YYYY).", "implementationNotes": "The assumption is that sponsors should either have a Start Date or will indicate that the medication or therapy was started before, during or after the study period. The preferred method is to collect a complete Start Date. Partial dates (e.g., providing year only) for medications/treatment started a considerable amount of time prior to the start of study are acceptable.", "label": "Concomitant Meds Start Date", "mappingInstructions": "This does not map directly to an SDTMIG variable. For the SDTM submission dataset, concatenate all collected CDASH START DATE and TIME components and populate the SDTMIG variable CMSTDTC in ISO 8601 format.", "name": "CMSTDAT", "ordinal": "21", "prompt": "Start Date", "questionText": "What was the (concomitant) [medication/treatment/therapy/dose] start date?", "simpleDatatype": "Char"}, {"_links": {"implements": {"href": "/mdr/cdash/1-0/classes/Timing/fields/--STTIM", "title": "Start Time of Observation", "type": "Class Variable"}, "parentDomain": {"href": "/mdr/cdashig/2-0/domains/CM", "title": "Concomitant Medications", "type": "CDASH Domain"}, "parentProduct": {"href": "/mdr/cdashig/2-0", "title": "Clinical Data Acquisition Standards Harmonization Implementation Guide for Human Clinical Trials Version 2.0", "type": "Implementation Guide"}, "priorVersion": {"href": "/mdr/cdashig/1-1-1/domains/CM/fields/CMSTTIM", "type": "Data Collection Field"}, "rootItem": {"href": "/mdr/root/cdashig/domains/CM/fields/CMSTTIM", "title": "Version-agnostic anchor element for field CM.CMSTTIM", "type": "Root Data Element"}, "sdtmigDatasetMappingTargets": [{"href": "/mdr/sdtmig/3-2/datasets/CM/variables/CMSTDTC", "title": "Start Date/Time of Medication", "type": "SDTM Dataset Variable"}], "self": {"href": "/mdr/cdashig/2-0/domains/CM/fields/CMSTTIM", "title": "Concomitant Meds Start Time", "type": "Data Collection Field"}}, "completionInstructions": "Record the time (as complete as possible) that the concomitant [medication/treatment] was started.", "core": "R/C", "definition": "The time the concomitant medication/treatment/therapy was started represented in an unambiguous time format (e.g., hh:mm:ss).", "implementationNotes": "Recommend collecting the time a concomitant medication/treatment was started only when a protocol or data collection scenarios supports it. Typically, a start time is not collected unless the subject is under the direct care of the site at the time a concomitant medication/treatment administered or the subject records the start time in a diary. See CDASHIG Section 3.7 Mapping Relative Times from Collection to Submissions and SDTMIG IG 3.2 section 4.1.4.7 for more information.", "label": "Concomitant Meds Start Time", "mappingInstructions": "This does not map directly to an SDTMIG variable. For the SDTM submission dataset, concatenate all collected CDASH START DATE and TIME components and populate the SDTMIG variable CMSTDTC in ISO 8601 format.", "name": "CMSTTIM", "ordinal": "22", "prompt": "Start Time", "questionText": "What was the (concomitant) [medication/treatment/therapy/dose] start time?", "simpleDatatype": "Char"}, {"_links": {"codelist": [{"href": "/mdr/root/ct/sdtmct/codelists/C66742", "title": "Version-agnostic anchor resource for codelist C66742", "type": "Root Value Domain"}], "implements": {"href": "/mdr/cdash/1-0/classes/Interventions/fields/--PRIOR", "title": "Prior Intervention", "type": "Class Variable"}, "parentDomain": {"href": "/mdr/cdashig/2-0/domains/CM", "title": "Concomitant Medications", "type": "CDASH Domain"}, "parentProduct": {"href": "/mdr/cdashig/2-0", "title": "Clinical Data Acquisition Standards Harmonization Implementation Guide for Human Clinical Trials Version 2.0", "type": "Implementation Guide"}, "priorVersion": {"href": "/mdr/cdashig/1-1-1/domains/CM/fields/CMPRIOR", "type": "Data Collection Field"}, "rootItem": {"href": "/mdr/root/cdashig/domains/CM/fields/CMPRIOR", "title": "Version-agnostic anchor element for field CM.CMPRIOR", "type": "Root Data Element"}, "sdtmigDatasetMappingTargets": [{"href": "/mdr/sdtmig/3-2/datasets/CM/variables/CMSTRF", "title": "Start Relative to Reference Period", "type": "SDTM Dataset Variable"}, {"href": "/mdr/sdtmig/3-2/datasets/CM/variables/CMSTTPT", "title": "Start Reference Time Point", "type": "SDTM Dataset Variable"}], "self": {"href": "/mdr/cdashig/2-0/domains/CM/fields/CMPRIOR", "title": "Prior Concomitant Meds", "type": "Data Collection Field"}}, "completionInstructions": "Check if the concomitant [medication/treatment/therapy] was started before the study.", "core": "O", "definition": "Indication the concomitant medication/treatment/therapy was given or taken prior to [CMSTTPT] or prior to the date in DM.RFSTDTC.", "implementationNotes": "Sponsors may collect this information rather than start dates. See CDASHIG Section 3.7 Mapping Relative Times from Collection to Submissions and SDTMIG IG 3.2 section 4.1.4.7 for more information. Sponsors may collect this information rather than start dates.", "label": "Prior Concomitant Meds", "mappingInstructions": "This does not map directly to an SDTMIG variable. May be used to populate a value into an SDTM relative timing variable such as CMSTRF or CMSTRTPT. When populating CMSTRF, or CMSTRTPT, if the value of the CDASH field CMPRIOR is \"Y\" a value from the CDISC CT (STENRF) may be used. When CMPRIOR refers to the Study Reference Period (defined in DM.RFSTDTC to DM.RFENDTC) the SDTM variable CMSTRF should be populated. When CMPRIOR is compared to any other time point, the SDTM variables CMSTRTPT and CMSTTPT should be used. Note: CMSTRTPT must refer to the time point anchor described in CMSTTPT.", "name": "CMPRIOR", "ordinal": "23", "prompt": "Prior to [CMSTTPT]; Prior to Study", "questionText": "Was the (concomitant) [medication/treatment/therapy] given/taken prior to [CMSTTPT]?; Was the (concomitant) [medication/treatment/therapy] given/taken prior to study start?", "simpleDatatype": "Char"}, {"_links": {"codelist": [{"href": "/mdr/root/ct/sdtmct/codelists/C66742", "title": "Version-agnostic anchor resource for codelist C66742", "type": "Root Value Domain"}], "implements": {"href": "/mdr/cdash/1-0/classes/Interventions/fields/--ONGO", "title": "Ongoing Intervention", "type": "Class Variable"}, "parentDomain": {"href": "/mdr/cdashig/2-0/domains/CM", "title": "Concomitant Medications", "type": "CDASH Domain"}, "parentProduct": {"href": "/mdr/cdashig/2-0", "title": "Clinical Data Acquisition Standards Harmonization Implementation Guide for Human Clinical Trials Version 2.0", "type": "Implementation Guide"}, "priorVersion": {"href": "/mdr/cdashig/1-1-1/domains/CM/fields/CMONGO", "type": "Data Collection Field"}, "rootItem": {"href": "/mdr/root/cdashig/domains/CM/fields/CMONGO", "title": "Version-agnostic anchor element for field CM.CMONGO", "type": "Root Data Element"}, "sdtmigDatasetMappingTargets": [{"href": "/mdr/sdtmig/3-2/datasets/CM/variables/CMENRF", "title": "End Relative to Reference Period", "type": "SDTM Dataset Variable"}, {"href": "/mdr/sdtmig/3-2/datasets/CM/variables/CMENRTPT", "title": "End Relative to Reference Time Point", "type": "SDTM Dataset Variable"}], "self": {"href": "/mdr/cdashig/2-0/domains/CM/fields/CMONGO", "title": "Ongoing Concomitant Meds", "type": "Data Collection Field"}}, "completionInstructions": "Record the concomitant [medication/treatment/therapy] as ongoing if the subject has not stopped taking the concomitant [medication/treatment/therapy] at the time of data collection and the end date should be left blank.", "core": "R/C", "definition": "Indication the concomitant medication/treatment/therapy is ongoing when no end date is provided.", "implementationNotes": "This box should be checked to indicate that the concomitant medication/treatment has not stopped at the time of data collection. It is expected that every recorded medication/treatment should have either an End Date or be checked as Ongoing, but not both. However, in cases where ongoing concomitant medications/treatments are not permitted, it may not be necessary to include an Ongoing field in the CRF. Reference CDASHIG Section 3.7 for more information about collecting relative date/time and see section 4.1.4 of the SDTMIG V. 3.2 for information about mapping relative times.", "label": "Ongoing Concomitant Meds", "mappingInstructions": "This does not map directly to an SDTM variable. May be used to populate a value into an SDTMIG relative timing variable such as CMENRF or CMENRTPT. When populating CMENRF, if the value of CMONGO is \"Y\", the value of \"DURING\", \"AFTER\" or \"DURING/AFTER\" may be used. When populating CMENRTPT, if the value of CMONGO is \"Y\", the value of \"ONGOING\" may be used. When CMONGO refers to the Study Reference Period (defined in DM.RFSTDTC to DM.RFENDTC) the SDTM variable CMENRF should be populated. When CMONGO is used in conjunction with other time point, the SDTM variables CMENRTPT and CMENTPT should be used. Note: CMENRTPT must refer to a time point anchor described in CMENTPT.", "name": "CMONGO", "ordinal": "24", "prompt": "Ongoing", "questionText": "Was the (concomitant) [medication/treatment/therapy] ongoing?", "simpleDatatype": "Char"}, {"_links": {"implements": {"href": "/mdr/cdash/1-0/classes/Timing/fields/--ENDAT", "title": "End Date of Observation", "type": "Class Variable"}, "parentDomain": {"href": "/mdr/cdashig/2-0/domains/CM", "title": "Concomitant Medications", "type": "CDASH Domain"}, "parentProduct": {"href": "/mdr/cdashig/2-0", "title": "Clinical Data Acquisition Standards Harmonization Implementation Guide for Human Clinical Trials Version 2.0", "type": "Implementation Guide"}, "priorVersion": {"href": "/mdr/cdashig/1-1-1/domains/CM/fields/CMENDAT", "type": "Data Collection Field"}, "rootItem": {"href": "/mdr/root/cdashig/domains/CM/fields/CMENDAT", "title": "Version-agnostic anchor element for field CM.CMENDAT", "type": "Root Data Element"}, "sdtmigDatasetMappingTargets": [{"href": "/mdr/sdtmig/3-2/datasets/CM/variables/CMENDTC", "title": "End Date/Time of Medication", "type": "SDTM Dataset Variable"}], "self": {"href": "/mdr/cdashig/2-0/domains/CM/fields/CMENDAT", "title": "Concomitant Meds End Date", "type": "Data Collection Field"}}, "completionInstructions": "Record the date the concomitant [medication/treatment] was stopped using this format (DD-MON-YYYY). If the subject has not stopped taking the concomitant [medication/treatment] leave this field blank.", "core": "R/C", "definition": "The date that the subject ended/stopped taking the concomitant medication/treatment/therapy represented in an unambiguous date format (e.g., DD-MON-YYYY).", "implementationNotes": "The assumption is that sponsors should either have an End Date or will indicate that the medication or therapy was ongoing at the time of collection or at the end of the study. However, in cases where the End Date can be determined from dates collected elsewhere in the CRF it is not necessary to include an End Date in the CRF. For example, if all concomitant medications/treatments are administered only once during a trial, the End Date will be the same as the Start Date.", "label": "Concomitant Meds End Date", "mappingInstructions": "This does not map directly to an SDTMIG variable. For the SDTM submission dataset, concatenate all collected CDASH END DATE and TIME components and populate the SDTMIG variable CMENDTC in ISO 8601 format.", "name": "CMENDAT", "ordinal": "25", "prompt": "End Date", "questionText": "What was the (concomitant) [medication/treatment/therapy/dose] end date?", "simpleDatatype": "Char"}, {"_links": {"implements": {"href": "/mdr/cdash/1-0/classes/Timing/fields/--ENTIM", "title": "End Time of Observation", "type": "Class Variable"}, "parentDomain": {"href": "/mdr/cdashig/2-0/domains/CM", "title": "Concomitant Medications", "type": "CDASH Domain"}, "parentProduct": {"href": "/mdr/cdashig/2-0", "title": "Clinical Data Acquisition Standards Harmonization Implementation Guide for Human Clinical Trials Version 2.0", "type": "Implementation Guide"}, "priorVersion": {"href": "/mdr/cdashig/1-1-1/domains/CM/fields/CMENTIM", "type": "Data Collection Field"}, "rootItem": {"href": "/mdr/root/cdashig/domains/CM/fields/CMENTIM", "title": "Version-agnostic anchor element for field CM.CMENTIM", "type": "Root Data Element"}, "sdtmigDatasetMappingTargets": [{"href": "/mdr/sdtmig/3-2/datasets/CM/variables/CMENDTC", "title": "End Date/Time of Medication", "type": "SDTM Dataset Variable"}], "self": {"href": "/mdr/cdashig/2-0/domains/CM/fields/CMENTIM", "title": "Concomitant Meds End Time", "type": "Data Collection Field"}}, "completionInstructions": "Record the time (as complete as possible) that the concomitant medication/treatment was stopped.", "core": "R/C", "definition": "The time when the subject ended/stopped taking the concomitant medication/treatment/therapy represented in an unambiguous time format (e.g., hh:mm:ss).", "implementationNotes": "Recommend collecting the time a concomitant medication or treatment was ended only when a protocol or data collection scenarios require it or the subject records the start time in a diary. Typically, an end time is not collected unless the subject is under the direct care of the site at the time a concomitant medication/treatment is stopped.", "label": "Concomitant Meds End Time", "mappingInstructions": "This does not map directly to an SDTMIG variable. For the SDTM submission dataset, concatenate all collected CDASH END DATE and TIME components and populate the SDTMIG variable CMENDTC in ISO 8601 format.", "name": "CMENTIM", "ordinal": "26", "prompt": "End Time", "questionText": "What was the [medication/treatment/therapy/dose] end time?", "simpleDatatype": "Char"}, {"_links": {"implements": {"href": "/mdr/cdash/1-0/classes/Interventions/fields/--DECOD", "title": "Dictionary or Standardized Term", "type": "Class Variable"}, "parentDomain": {"href": "/mdr/cdashig/2-0/domains/CM", "title": "Concomitant Medications", "type": "CDASH Domain"}, "parentProduct": {"href": "/mdr/cdashig/2-0", "title": "Clinical Data Acquisition Standards Harmonization Implementation Guide for Human Clinical Trials Version 2.0", "type": "Implementation Guide"}, "rootItem": {"href": "/mdr/root/cdashig/domains/CM/fields/CMDECOD", "title": "Version-agnostic anchor element for field CM.CMDECOD", "type": "Root Data Element"}, "sdtmigDatasetMappingTargets": [{"href": "/mdr/sdtmig/3-2/datasets/CM/variables/CMDECOD", "title": "Standardized Medication Name", "type": "SDTM Dataset Variable"}], "self": {"href": "/mdr/cdashig/2-0/domains/CM/fields/CMDECOD", "title": "Concomitant Meds Dictionary or Standardized Term", "type": "Data Collection Field"}}, "core": "O", "definition": "The dictionary or sponsor-defined standardized text description of the topic variable, CMTRT, or the modified topic variable (CMMODIFY), if applicable.", "implementationNotes": "This field does not typically appear on the CRF. Sponsors will populate this through the coding process. Equivalent to the generic drug name in WHO Drug, or a term in SNOMED, ICD9, or other published or sponsor-defined dictionaries.", "label": "Concomitant Meds Dictionary or Standardized Term", "mappingInstructions": "Maps directly to the SDTMIG variable listed in the column with the heading \"SDTMIG Target\".", "name": "CMDECOD", "ordinal": "27", "prompt": "N/A", "questionText": "N/A", "simpleDatatype": "Char"}, {"_links": {"implements": {"href": "/mdr/cdash/1-0/classes/Interventions/fields/--CLAS", "title": "Class Description", "type": "Class Variable"}, "parentDomain": {"href": "/mdr/cdashig/2-0/domains/CM", "title": "Concomitant Medications", "type": "CDASH Domain"}, "parentProduct": {"href": "/mdr/cdashig/2-0", "title": "Clinical Data Acquisition Standards Harmonization Implementation Guide for Human Clinical Trials Version 2.0", "type": "Implementation Guide"}, "rootItem": {"href": "/mdr/root/cdashig/domains/CM/fields/CMCLAS", "title": "Version-agnostic anchor element for field CM.CMCLAS", "type": "Root Data Element"}, "sdtmigDatasetMappingTargets": [{"href": "/mdr/sdtmig/3-2/datasets/CM/variables/CMCLAS", "title": "Medication Class", "type": "SDTM Dataset Variable"}], "self": {"href": "/mdr/cdashig/2-0/domains/CM/fields/CMCLAS", "title": "Concomitant Meds Class Description", "type": "Data Collection Field"}}, "core": "O", "definition": "The class for the intervention, often obtained from a coding dictionary.", "implementationNotes": "This field does not typically appear on the CRF. Sponsors will populate this through the coding process. This would generally be the class used for analysis.", "label": "Concomitant Meds Class Description", "mappingInstructions": "Maps directly to the SDTMIG variable listed in the column with the heading \"SDTMIG Target\".", "name": "CMCLAS", "ordinal": "28", "prompt": "N/A", "questionText": "N/A", "simpleDatatype": "Char"}, {"_links": {"implements": {"href": "/mdr/cdash/1-0/classes/Interventions/fields/--CLASCD", "title": "Class Code", "type": "Class Variable"}, "parentDomain": {"href": "/mdr/cdashig/2-0/domains/CM", "title": "Concomitant Medications", "type": "CDASH Domain"}, "parentProduct": {"href": "/mdr/cdashig/2-0", "title": "Clinical Data Acquisition Standards Harmonization Implementation Guide for Human Clinical Trials Version 2.0", "type": "Implementation Guide"}, "rootItem": {"href": "/mdr/root/cdashig/domains/CM/fields/CMCLASCD", "title": "Version-agnostic anchor element for field CM.CMCLASCD", "type": "Root Data Element"}, "sdtmigDatasetMappingTargets": [{"href": "/mdr/sdtmig/3-2/datasets/CM/variables/CMCLASCD", "title": "Medication Class Code", "type": "SDTM Dataset Variable"}], "self": {"href": "/mdr/cdashig/2-0/domains/CM/fields/CMCLASCD", "title": "Concomitant Meds Class Code", "type": "Data Collection Field"}}, "core": "O", "definition": "The assigned dictionary code for the class for the intervention.", "implementationNotes": "This field does not typically appear on the CRF. Sponsors will populate this through the coding process. This would generally be the class code used for analysis.", "label": "Concomitant Meds Class Code", "mappingInstructions": "Maps directly to the SDTMIG variable listed in the column with the heading \"SDTMIG Target\".", "name": "CMCLASCD", "ordinal": "29", "prompt": "N/A", "questionText": "N/A", "simpleDatatype": "Num"}, {"_links": {"implements": {"href": "/mdr/cdash/1-0/classes/Interventions/fields/--ATC1", "title": "ATC Level 1 Description", "type": "Class Variable"}, "parentDomain": {"href": "/mdr/cdashig/2-0/domains/CM", "title": "Concomitant Medications", "type": "CDASH Domain"}, "parentProduct": {"href": "/mdr/cdashig/2-0", "title": "Clinical Data Acquisition Standards Harmonization Implementation Guide for Human Clinical Trials Version 2.0", "type": "Implementation Guide"}, "rootItem": {"href": "/mdr/root/cdashig/domains/CM/fields/CMATC1", "title": "Version-agnostic anchor element for field CM.CMATC1", "type": "Root Data Element"}, "sdtmigDatasetMappingTargets": [{"href": "/mdr/sdtmig/3-2/datasets/SUPPQUAL/variables/QVAL", "title": "Data Value", "type": "SDTM Dataset Variable"}], "self": {"href": "/mdr/cdashig/2-0/domains/CM/fields/CMATC1", "title": "ATC Level 1 Description", "type": "Data Collection Field"}}, "core": "O", "definition": "Dictionary text description of the first level of hierarchy within the Anatomical Therapeutic Chemical Classification System. Indicates the anatomical main group.", "implementationNotes": "This field does not typically appear on the CRF. This is populated through the sponsor's coding process.", "label": "ATC Level 1 Description", "mappingInstructions": "This does not map directly to an SDTMIG variable. This information could be submitted in a SUPPCM dataset as the value of SUPPCM.QVAL where SUPPCM.QNAM=\"CMATC1\" and SUPPCM.QLABEL=\"ATC Level 1 Description\". Sponsors should include an Origin column in the SUPPQ dataset to indicate that the data was \"ASSIGNED\". Refer to the current SDTM and SDTMIG for instructions on placement of non-standard variables in SDTM domains.", "name": "CMATC1", "ordinal": "30", "prompt": "N/A", "questionText": "N/A", "simpleDatatype": "Char"}, {"_links": {"implements": {"href": "/mdr/cdash/1-0/classes/Interventions/fields/--ATC1CD", "title": "ATC Level 1 Code", "type": "Class Variable"}, "parentDomain": {"href": "/mdr/cdashig/2-0/domains/CM", "title": "Concomitant Medications", "type": "CDASH Domain"}, "parentProduct": {"href": "/mdr/cdashig/2-0", "title": "Clinical Data Acquisition Standards Harmonization Implementation Guide for Human Clinical Trials Version 2.0", "type": "Implementation Guide"}, "rootItem": {"href": "/mdr/root/cdashig/domains/CM/fields/CMATC1CD", "title": "Version-agnostic anchor element for field CM.CMATC1CD", "type": "Root Data Element"}, "sdtmigDatasetMappingTargets": [{"href": "/mdr/sdtmig/3-2/datasets/SUPPQUAL/variables/QVAL", "title": "Data Value", "type": "SDTM Dataset Variable"}], "self": {"href": "/mdr/cdashig/2-0/domains/CM/fields/CMATC1CD", "title": "ATC Level 1 Code", "type": "Data Collection Field"}}, "core": "O", "definition": "Dictionary code denoting the first level of hierarchy within the Anatomical Therapeutic Chemical Classification System. Indicates the anatomical main group.", "implementationNotes": "This field does not typically appear on the CRF. This is populated through the sponsor's coding process.", "label": "ATC Level 1 Code", "mappingInstructions": "This does not map directly to an SDTMIG variable. This information could be submitted in a SUPPCM dataset as the value of SUPPCM.QVAL where SUPPCM.QNAM =\"MATC1CD\" and SUPPCM.QLABEL=\"ATC Level 1 Code\". Sponsors should include an Origin column in the SUPPQ dataset to indicate that the data was \"ASSIGNED\".", "name": "CMATC1CD", "ordinal": "31", "prompt": "N/A", "questionText": "N/A", "simpleDatatype": "Num"}, {"_links": {"implements": {"href": "/mdr/cdash/1-0/classes/Interventions/fields/--ATC2", "title": "ATC Level 2 Description", "type": "Class Variable"}, "parentDomain": {"href": "/mdr/cdashig/2-0/domains/CM", "title": "Concomitant Medications", "type": "CDASH Domain"}, "parentProduct": {"href": "/mdr/cdashig/2-0", "title": "Clinical Data Acquisition Standards Harmonization Implementation Guide for Human Clinical Trials Version 2.0", "type": "Implementation Guide"}, "rootItem": {"href": "/mdr/root/cdashig/domains/CM/fields/CMATC2", "title": "Version-agnostic anchor element for field CM.CMATC2", "type": "Root Data Element"}, "sdtmigDatasetMappingTargets": [{"href": "/mdr/sdtmig/3-2/datasets/SUPPQUAL/variables/QVAL", "title": "Data Value", "type": "SDTM Dataset Variable"}], "self": {"href": "/mdr/cdashig/2-0/domains/CM/fields/CMATC2", "title": "ATC Level 2 Description", "type": "Data Collection Field"}}, "core": "O", "definition": "Dictionary text description for the second level of hierarchy within the Anatomical Therapeutic Chemical Classification System. Indicates the therapeutic main group.", "implementationNotes": "This field does not typically appear on the CRF. This is populated through the sponsor's coding process.", "label": "ATC Level 2 Description", "mappingInstructions": "This does not map directly to an SDTMIG variable. This information could be submitted in a SUPPCM dataset as the value of SUPPCM.QVAL where SUPPCM.QNAM=\"CMATC2\" and SUPPCM.QLABEL=\"ATC Level 2 Description\". Sponsors should include an Origin column in the SUPPQ dataset to indicate that the data was \"ASSIGNED\". Refer to the current SDTM and SDTMIG for instructions on placement of non-standard variables in SDTM domains.", "name": "CMATC2", "ordinal": "32", "prompt": "N/A", "questionText": "N/A", "simpleDatatype": "Char"}, {"_links": {"implements": {"href": "/mdr/cdash/1-0/classes/Interventions/fields/--ATC2CD", "title": "ATC Level 2 Code", "type": "Class Variable"}, "parentDomain": {"href": "/mdr/cdashig/2-0/domains/CM", "title": "Concomitant Medications", "type": "CDASH Domain"}, "parentProduct": {"href": "/mdr/cdashig/2-0", "title": "Clinical Data Acquisition Standards Harmonization Implementation Guide for Human Clinical Trials Version 2.0", "type": "Implementation Guide"}, "rootItem": {"href": "/mdr/root/cdashig/domains/CM/fields/CMATC2CD", "title": "Version-agnostic anchor element for field CM.CMATC2CD", "type": "Root Data Element"}, "sdtmigDatasetMappingTargets": [{"href": "/mdr/sdtmig/3-2/datasets/SUPPQUAL/variables/QVAL", "title": "Data Value", "type": "SDTM Dataset Variable"}], "self": {"href": "/mdr/cdashig/2-0/domains/CM/fields/CMATC2CD", "title": "ATC Level 2 Code", "type": "Data Collection Field"}}, "core": "O", "definition": "Dictionary code denoting the second level of hierarchy within the Anatomical Therapeutic Chemical Classification System. Indicates the therapeutic main group.", "implementationNotes": "This field does not typically appear on the CRF. This is populated through the sponsor's coding process.", "label": "ATC Level 2 Code", "mappingInstructions": "This does not map directly to an SDTMIG variable. This information could be submitted in a SUPPCM dataset as the value of SUPPCM.QVAL where SUPPCM.QNAM=\"CMATC2CD\" and SUPPCM.QLABEL=\"ATC Level 2 Code\". Sponsors should include an Origin column in the SUPPQ dataset to indicate that the data was \"ASSIGNED\".", "name": "CMATC2CD", "ordinal": "33", "prompt": "N/A", "questionText": "N/A", "simpleDatatype": "Num"}, {"_links": {"implements": {"href": "/mdr/cdash/1-0/classes/Interventions/fields/--ATC3", "title": "ATC Level 3 Description", "type": "Class Variable"}, "parentDomain": {"href": "/mdr/cdashig/2-0/domains/CM", "title": "Concomitant Medications", "type": "CDASH Domain"}, "parentProduct": {"href": "/mdr/cdashig/2-0", "title": "Clinical Data Acquisition Standards Harmonization Implementation Guide for Human Clinical Trials Version 2.0", "type": "Implementation Guide"}, "rootItem": {"href": "/mdr/root/cdashig/domains/CM/fields/CMATC3", "title": "Version-agnostic anchor element for field CM.CMATC3", "type": "Root Data Element"}, "sdtmigDatasetMappingTargets": [{"href": "/mdr/sdtmig/3-2/datasets/SUPPQUAL/variables/QVAL", "title": "Data Value", "type": "SDTM Dataset Variable"}], "self": {"href": "/mdr/cdashig/2-0/domains/CM/fields/CMATC3", "title": "ATC Level 3 Description", "type": "Data Collection Field"}}, "core": "O", "definition": "Dictionary text description of the third level of hierarchy within the Anatomical Therapeutic Chemical Classification System. Indicates the therapeutic/pharmacological subgroup.", "implementationNotes": "This field does not typically appear on the CRF. This is populated through the sponsor's coding process.", "label": "ATC Level 3 Description", "mappingInstructions": "This does not map directly to an SDTMIG variable. This information could be submitted in a SUPPCM dataset as the value of SUPPCM.QVAL where SUPPCM.QNAM=\"CMATC3\" and SUPPCM.QLABEL=\"ATC Level 3 Description\". Sponsors should include an Origin column in the SUPPQ dataset to indicate that the data was \"ASSIGNED\". Refer to the current SDTM and SDTMIG for instructions on placement of non-standard variables in SDTM domains.", "name": "CMATC3", "ordinal": "34", "prompt": "N/A", "questionText": "N/A", "simpleDatatype": "Char"}, {"_links": {"implements": {"href": "/mdr/cdash/1-0/classes/Interventions/fields/--ATC3CD", "title": "ATC Level 3 Code", "type": "Class Variable"}, "parentDomain": {"href": "/mdr/cdashig/2-0/domains/CM", "title": "Concomitant Medications", "type": "CDASH Domain"}, "parentProduct": {"href": "/mdr/cdashig/2-0", "title": "Clinical Data Acquisition Standards Harmonization Implementation Guide for Human Clinical Trials Version 2.0", "type": "Implementation Guide"}, "rootItem": {"href": "/mdr/root/cdashig/domains/CM/fields/CMATC3CD", "title": "Version-agnostic anchor element for field CM.CMATC3CD", "type": "Root Data Element"}, "sdtmigDatasetMappingTargets": [{"href": "/mdr/sdtmig/3-2/datasets/SUPPQUAL/variables/QVAL", "title": "Data Value", "type": "SDTM Dataset Variable"}], "self": {"href": "/mdr/cdashig/2-0/domains/CM/fields/CMATC3CD", "title": "ATC Level 3 Code", "type": "Data Collection Field"}}, "core": "O", "definition": "Dictionary code denoting the third level of hierarchy within the Anatomical Therapeutic Chemical Classification System. Indicates the therapeutic/pharmacological subgroup.", "implementationNotes": "This field does not typically appear on the CRF. This is populated through the sponsor's coding process.", "label": "ATC Level 3 Code", "mappingInstructions": "This does not map directly to an SDTMIG variable. This information could be submitted in a SUPPCM dataset as the value of SUPPCM.QVAL where SUPPCM.QNAM=\"CMATC3CD\" and SUPPCM.QLABEL=\"ATC Level 3 Code\". Sponsors should include an Origin column in the SUPPQ dataset to indicate that the data was \"ASSIGNED\".", "name": "CMATC3CD", "ordinal": "35", "prompt": "N/A", "questionText": "N/A", "simpleDatatype": "Num"}, {"_links": {"implements": {"href": "/mdr/cdash/1-0/classes/Interventions/fields/--ATC4", "title": "ATC Level 4 Description", "type": "Class Variable"}, "parentDomain": {"href": "/mdr/cdashig/2-0/domains/CM", "title": "Concomitant Medications", "type": "CDASH Domain"}, "parentProduct": {"href": "/mdr/cdashig/2-0", "title": "Clinical Data Acquisition Standards Harmonization Implementation Guide for Human Clinical Trials Version 2.0", "type": "Implementation Guide"}, "rootItem": {"href": "/mdr/root/cdashig/domains/CM/fields/CMATC4", "title": "Version-agnostic anchor element for field CM.CMATC4", "type": "Root Data Element"}, "sdtmigDatasetMappingTargets": [{"href": "/mdr/sdtmig/3-2/datasets/SUPPQUAL/variables/QVAL", "title": "Data Value", "type": "SDTM Dataset Variable"}], "self": {"href": "/mdr/cdashig/2-0/domains/CM/fields/CMATC4", "title": "ATC Level 4 Description", "type": "Data Collection Field"}}, "core": "O", "definition": "Dictionary text description of the fourth level of hierarchy within the Anatomical Therapeutic Chemical Classification System. Indicates the chemical/therapeutic/pharmacological subgroup.", "implementationNotes": "This field does not typically appear on the CRF. This is populated through the sponsor's coding process.", "label": "ATC Level 4 Description", "mappingInstructions": "This does not map directly to an SDTMIG variable. This information could be submitted in a SUPPCM dataset as the value of SUPPCM.QVAL where SUPPCM.QNAM=\"CMATC4\" and SUPPCM.QLABEL=\"ATC Level 4 Description\". Sponsors should include an Origin column in the SUPPQ dataset to indicate that the data was \"ASSIGNED\". Refer to the current SDTM and SDTMIG for instructions on placement of non-standard variables in SDTM domains.", "name": "CMATC4", "ordinal": "36", "prompt": "N/A", "questionText": "N/A", "simpleDatatype": "Char"}, {"_links": {"implements": {"href": "/mdr/cdash/1-0/classes/Interventions/fields/--ATC4CD", "title": "ATC Level 4 Code", "type": "Class Variable"}, "parentDomain": {"href": "/mdr/cdashig/2-0/domains/CM", "title": "Concomitant Medications", "type": "CDASH Domain"}, "parentProduct": {"href": "/mdr/cdashig/2-0", "title": "Clinical Data Acquisition Standards Harmonization Implementation Guide for Human Clinical Trials Version 2.0", "type": "Implementation Guide"}, "rootItem": {"href": "/mdr/root/cdashig/domains/CM/fields/CMATC4CD", "title": "Version-agnostic anchor element for field CM.CMATC4CD", "type": "Root Data Element"}, "sdtmigDatasetMappingTargets": [{"href": "/mdr/sdtmig/3-2/datasets/SUPPQUAL/variables/QVAL", "title": "Data Value", "type": "SDTM Dataset Variable"}], "self": {"href": "/mdr/cdashig/2-0/domains/CM/fields/CMATC4CD", "title": "ATC Level 4 Code", "type": "Data Collection Field"}}, "core": "O", "definition": "Dictionary code denoting the fourth level of hierarchy within the Anatomical Therapeutic Chemical Classification System. Indicates the chemical/therapeutic/pharmacological subgroup.", "implementationNotes": "This field does not typically appear on the CRF. This is populated through the sponsor's coding process.", "label": "ATC Level 4 Code", "mappingInstructions": "This does not map directly to an SDTMIG variable. This information could be submitted in a SUPPCM dataset as the value of SUPPCM.QVAL where SUPPCM.QNAM=\"CMATC4CD\" and SUPPCM.QLABEL=\"ATC Level 4 Code\". Sponsors should include an Origin column in the SUPPQ dataset to indicate that the data was \"ASSIGNED\".", "name": "CMATC4CD", "ordinal": "37", "prompt": "N/A", "questionText": "N/A", "simpleDatatype": "Num"}, {"_links": {"implements": {"href": "/mdr/cdash/1-0/classes/Interventions/fields/--ATC5", "title": "ATC Level 5 Description", "type": "Class Variable"}, "parentDomain": {"href": "/mdr/cdashig/2-0/domains/CM", "title": "Concomitant Medications", "type": "CDASH Domain"}, "parentProduct": {"href": "/mdr/cdashig/2-0", "title": "Clinical Data Acquisition Standards Harmonization Implementation Guide for Human Clinical Trials Version 2.0", "type": "Implementation Guide"}, "rootItem": {"href": "/mdr/root/cdashig/domains/CM/fields/CMATC5", "title": "Version-agnostic anchor element for field CM.CMATC5", "type": "Root Data Element"}, "sdtmigDatasetMappingTargets": [{"href": "/mdr/sdtmig/3-2/datasets/SUPPQUAL/variables/QVAL", "title": "Data Value", "type": "SDTM Dataset Variable"}], "self": {"href": "/mdr/cdashig/2-0/domains/CM/fields/CMATC5", "title": "ATC Level 5 Description", "type": "Data Collection Field"}}, "core": "O", "definition": "Dictionary text description of the fifth level of hierarchy within the Anatomical Therapeutic Chemical Classification System. Indicates the chemical substance.", "implementationNotes": "This field does not typically appear on the CRF. This is populated through the sponsor's coding process.", "label": "ATC Level 5 Description", "mappingInstructions": "This does not map directly to an SDTMIG variable. This information could be submitted in a SUPPCM dataset as the value of SUPPCM.QVAL where SUPPCM.QNAM=\"CMATC5\" and SUPPCM.QLABEL=\"ATC Level 5 Description\". Sponsors should include an Origin column in the SUPPQ dataset to indicate that the data was \"ASSIGNED\". Refer to the current SDTM and SDTMIG for instructions on placement of non-standard variables in SDTM domains.", "name": "CMATC5", "ordinal": "38", "prompt": "N/A", "questionText": "N/A", "simpleDatatype": "Char"}, {"_links": {"implements": {"href": "/mdr/cdash/1-0/classes/Interventions/fields/--ATC5CD", "title": "ATC Level 5 Code", "type": "Class Variable"}, "parentDomain": {"href": "/mdr/cdashig/2-0/domains/CM", "title": "Concomitant Medications", "type": "CDASH Domain"}, "parentProduct": {"href": "/mdr/cdashig/2-0", "title": "Clinical Data Acquisition Standards Harmonization Implementation Guide for Human Clinical Trials Version 2.0", "type": "Implementation Guide"}, "rootItem": {"href": "/mdr/root/cdashig/domains/CM/fields/CMATC5CD", "title": "Version-agnostic anchor element for field CM.CMATC5CD", "type": "Root Data Element"}, "sdtmigDatasetMappingTargets": [{"href": "/mdr/sdtmig/3-2/datasets/SUPPQUAL/variables/QVAL", "title": "Data Value", "type": "SDTM Dataset Variable"}], "self": {"href": "/mdr/cdashig/2-0/domains/CM/fields/CMATC5CD", "title": "ATC Level 5 Code", "type": "Data Collection Field"}}, "core": "O", "definition": "Dictionary code denoting the fifth level of hierarchy within the Anatomical Therapeutic Chemical Classification System. Indicates the chemical substance.", "implementationNotes": "This field does not typically appear on the CRF. This is populated through the sponsor's coding process.", "label": "ATC Level 5 Code", "mappingInstructions": "This does not map directly to an SDTMIG variable. This information could be submitted in a SUPPCM dataset as the value of SUPPCM.QVAL where SUPPCM.QNAM=\"CMATC5CD\" and SUPPCM.QLABEL=\"ATC Level 5 Code\". Sponsors should include an Origin column in the SUPPQ dataset to indicate that the data was \"ASSIGNED\".", "name": "CMATC5CD", "ordinal": "39", "prompt": "N/A", "questionText": "N/A", "simpleDatatype": "Num"}], "label": "Concomitant Medications", "name": "CM", "ordinal": "3"}, {"_links": {"parentClass": {"href": "/mdr/cdashig/2-0/classes/Interventions", "title": "Interventions Observation Class", "type": "Class"}, "parentProduct": {"href": "/mdr/cdashig/2-0", "title": "Clinical Data Acquisition Standards Harmonization Implementation Guide for Human Clinical Trials Version 2.0", "type": "Implementation Guide"}, "self": {"href": "/mdr/cdashig/2-0/domains/EC", "title": "Exposure as Collected", "type": "CDASH Domain"}}, "fields": [{"_links": {"implements": {"href": "/mdr/cdash/1-0/classes/Identifiers/fields/STUDYID", "title": "Study Identifier", "type": "Class Variable"}, "parentDomain": {"href": "/mdr/cdashig/2-0/domains/EC", "title": "Exposure as Collected", "type": "CDASH Domain"}, "parentProduct": {"href": "/mdr/cdashig/2-0", "title": "Clinical Data Acquisition Standards Harmonization Implementation Guide for Human Clinical Trials Version 2.0", "type": "Implementation Guide"}, "rootItem": {"href": "/mdr/root/cdashig/domains/EC/fields/STUDYID", "title": "Version-agnostic anchor element for field EC.STUDYID", "type": "Root Data Element"}, "sdtmigDatasetMappingTargets": [{"href": "/mdr/sdtmig/3-2/datasets/EC/variables/STUDYID", "title": "Study Identifier", "type": "SDTM Dataset Variable"}], "self": {"href": "/mdr/cdashig/2-0/domains/EC/fields/STUDYID", "title": "Study Identifier", "type": "Data Collection Field"}}, "core": "HR", "definition": "A unique identifier for a study.", "implementationNotes": "While this field is not typically captured on a CRF, it should be displayed clearly on the CRF and/or the EDC system. This field can be included into the database or populated during SDTM-based dataset creation before submission.", "label": "Study Identifier", "mappingInstructions": "Maps directly to the SDTMIG variable listed in the column with the heading \"SDTMIG Target\".", "name": "STUDYID", "ordinal": "1", "prompt": "[Protocol/Study]", "questionText": "What is the study identifier?", "simpleDatatype": "Char"}, {"_links": {"implements": {"href": "/mdr/cdash/1-0/domains/DM/fields/SITEID", "title": "Study Site Identifier", "type": "Data Collection Field"}, "parentDomain": {"href": "/mdr/cdashig/2-0/domains/EC", "title": "Exposure as Collected", "type": "CDASH Domain"}, "parentProduct": {"href": "/mdr/cdashig/2-0", "title": "Clinical Data Acquisition Standards Harmonization Implementation Guide for Human Clinical Trials Version 2.0", "type": "Implementation Guide"}, "rootItem": {"href": "/mdr/root/cdashig/domains/EC/fields/SITEID", "title": "Version-agnostic anchor element for field EC.SITEID", "type": "Root Data Element"}, "sdtmigDatasetMappingTargets": [{"href": "/mdr/sdtmig/3-2/datasets/DM/variables/SITEID", "title": "Study Site Identifier", "type": "SDTM Dataset Variable"}], "self": {"href": "/mdr/cdashig/2-0/domains/EC/fields/SITEID", "title": "Study Site Identifier", "type": "Data Collection Field"}}, "core": "HR", "definition": "A unique identifier for a site within a study.", "implementationNotes": "Paper: This is typically preprinted in the header of each CRF page for single site studies. For studies with multiple sites, this field may be left blank so that the number can be recorded by the site, or it may be preprinted for the CRFs that are shipped to each site. EDC: This should be prepopulated.", "label": "Study Site Identifier", "mappingInstructions": "Maps directly to the SDTMIG variable listed in the column with the heading \"SDTMIG Target\".", "name": "SITEID", "ordinal": "2", "prompt": "Site (Identifier)", "questionText": "What is the site identifier?", "simpleDatatype": "Char"}, {"_links": {"implements": {"href": "/mdr/cdash/1-0/classes/Identifiers/fields/SUBJID", "title": "Subject Identifier for the Study", "type": "Class Variable"}, "parentDomain": {"href": "/mdr/cdashig/2-0/domains/EC", "title": "Exposure as Collected", "type": "CDASH Domain"}, "parentProduct": {"href": "/mdr/cdashig/2-0", "title": "Clinical Data Acquisition Standards Harmonization Implementation Guide for Human Clinical Trials Version 2.0", "type": "Implementation Guide"}, "rootItem": {"href": "/mdr/root/cdashig/domains/EC/fields/SUBJID", "title": "Version-agnostic anchor element for field EC.SUBJID", "type": "Root Data Element"}, "sdtmigDatasetMappingTargets": [{"href": "/mdr/sdtmig/3-2/datasets/DM/variables/SUBJID", "title": "Subject Identifier for the Study", "type": "SDTM Dataset Variable"}], "self": {"href": "/mdr/cdashig/2-0/domains/EC/fields/SUBJID", "title": "Subject Identifier for the Study", "type": "Data Collection Field"}}, "completionInstructions": "Record the identifier for the subject.", "core": "HR", "definition": "A unique subject identifier within a site and a study.", "implementationNotes": "Paper: This is typically recorded in the header of each CRF page. EDC: The subject identifiers may be provided to the site using a pre-populated list in the system. This CDASH variable is typically collected in all CDASH domains. However, this CDASH variable is populated only in the SDTMIG DM domain. For more information, refer to Study Data Tabulation Model.", "label": "Subject Identifier for the Study", "mappingInstructions": "Maps directly to the SDTMIG variable listed in the column with the heading \"SDTMIG Target\".", "name": "SUBJID", "ordinal": "3", "prompt": "Subject", "questionText": "What is the subject identifier?", "simpleDatatype": "Char"}, {"_links": {"codelist": [{"href": "/mdr/root/ct/sdtmct/codelists/C99079", "title": "Version-agnostic anchor resource for codelist C99079", "type": "Root Value Domain"}], "implements": {"href": "/mdr/cdash/1-0/classes/Timing/fields/EPOCH", "title": "Epoch", "type": "Class Variable"}, "parentDomain": {"href": "/mdr/cdashig/2-0/domains/EC", "title": "Exposure as Collected", "type": "CDASH Domain"}, "parentProduct": {"href": "/mdr/cdashig/2-0", "title": "Clinical Data Acquisition Standards Harmonization Implementation Guide for Human Clinical Trials Version 2.0", "type": "Implementation Guide"}, "rootItem": {"href": "/mdr/root/cdashig/domains/EC/fields/EPOCH", "title": "Version-agnostic anchor element for field EC.EPOCH", "type": "Root Data Element"}, "sdtmigDatasetMappingTargets": [{"href": "/mdr/sdtmig/3-2/datasets/EC/variables/EPOCH", "title": "Epoch", "type": "SDTM Dataset Variable"}], "self": {"href": "/mdr/cdashig/2-0/domains/EC/fields/EPOCH", "title": "Epoch", "type": "Data Collection Field"}}, "completionInstructions": "[protocol specific]", "core": "R/C", "definition": "Name of the Trial Epoch with which this Element of the Arm is associated.", "implementationNotes": "If the same information is collected more than once in different periods/parts of a study (e.g., Disposition), EPOCH may be needed to differentiate them. Typically, the trial epoch will be pre-printed on the CRF as the title of the page. See SDTMIG for further information regarding EPOCH.", "label": "Epoch", "mappingInstructions": "Maps directly to the SDTMIG variable listed in the column with the heading \"SDTMIG Target\".", "name": "EPOCH", "ordinal": "4", "prompt": "Trial Period", "questionText": "What is the trial period?", "simpleDatatype": "Char"}, {"_links": {"codelist": [{"href": "/mdr/root/ct/sdtmct/codelists/C66742", "title": "Version-agnostic anchor resource for codelist C66742", "type": "Root Value Domain"}], "implements": {"href": "/mdr/cdash/1-0/classes/Interventions/fields/--YN", "title": "Any [Intervention]", "type": "Class Variable"}, "parentDomain": {"href": "/mdr/cdashig/2-0/domains/EC", "title": "Exposure as Collected", "type": "CDASH Domain"}, "parentProduct": {"href": "/mdr/cdashig/2-0", "title": "Clinical Data Acquisition Standards Harmonization Implementation Guide for Human Clinical Trials Version 2.0", "type": "Implementation Guide"}, "rootItem": {"href": "/mdr/root/cdashig/domains/EC/fields/ECYN", "title": "Version-agnostic anchor element for field EC.ECYN", "type": "Root Data Element"}, "self": {"href": "/mdr/cdashig/2-0/domains/EC/fields/ECYN", "title": "Any Study Treatment Taken", "type": "Data Collection Field"}}, "completionInstructions": "Indicate if the subject took any medications. If Yes, include the appropriate details where indicated.", "core": "O", "definition": "An indication whether or not the subject took study medication/ treatment.", "implementationNotes": "The intent/purpose of collecting this field is to help with data cleaning and monitoring. It provides verification that all other fields on the CRF were deliberately left blank. The ECYN is meant to indicate that the exposure as collected form should be completed or inserted into the case book. ECOCCUR would be used when the actual drug name is preprinted on the CRF. While these might be equivalent in a single drug study, there are differences in how they would be used in most trials. Therefore, it does not map into the SDTM variable ECOCCUR, since ECOCCUR indicates whether the subject was actually administered treatment/medication. If actual treatment data is available (ECYN = \"Y\"), ECOCCUR may be populated based on whether subject was actually administered treatment/medication.", "label": "Any Study Treatment Taken", "mappingInstructions": "Does not map to an SDTMIG variable. The SDTM Annotated CRF is annotated to indicate that this field is NOT SUBMITTED.", "name": "ECYN", "ordinal": "5", "prompt": "Any Study Treatments", "questionText": "Were any study treatments taken?", "simpleDatatype": "Char"}, {"_links": {"implements": {"href": "/mdr/cdash/1-0/classes/Interventions/fields/--CAT", "title": "Category", "type": "Class Variable"}, "parentDomain": {"href": "/mdr/cdashig/2-0/domains/EC", "title": "Exposure as Collected", "type": "CDASH Domain"}, "parentProduct": {"href": "/mdr/cdashig/2-0", "title": "Clinical Data Acquisition Standards Harmonization Implementation Guide for Human Clinical Trials Version 2.0", "type": "Implementation Guide"}, "rootItem": {"href": "/mdr/root/cdashig/domains/EC/fields/ECCAT", "title": "Version-agnostic anchor element for field EC.ECCAT", "type": "Root Data Element"}, "sdtmigDatasetMappingTargets": [{"href": "/mdr/sdtmig/3-2/datasets/EC/variables/ECCAT", "title": "Category of Treatment", "type": "SDTM Dataset Variable"}], "self": {"href": "/mdr/cdashig/2-0/domains/EC/fields/ECCAT", "title": "Category of Treatment", "type": "Data Collection Field"}}, "completionInstructions": "Record the study treatment category, if not pre-printed on the CRF.", "core": "O", "definition": "A grouping of topic-variable values based on user defined characteristics.", "implementationNotes": "Sponsor-defined Controlled Terminology. This would most commonly be either a heading, or a pre-printed category value on the CRF and not a question to which the site would provide an answer. If a question is asked, the response would typically be a sponsor-defined codelist. If the form is laid out as a grid, then words such as \"Category\" can be included as the column header.", "label": "Category of Treatment", "mappingInstructions": "Maps directly to the SDTMIG variable listed in the column with the heading \"SDTMIG Target\".", "name": "ECCAT", "ordinal": "6", "prompt": "[Study Treatment Category]; NULL", "questionText": "What is the category of the study treatment?", "simpleDatatype": "Char"}, {"_links": {"implements": {"href": "/mdr/cdash/1-0/classes/Interventions/fields/--SCAT", "title": "Subcategory", "type": "Class Variable"}, "parentDomain": {"href": "/mdr/cdashig/2-0/domains/EC", "title": "Exposure as Collected", "type": "CDASH Domain"}, "parentProduct": {"href": "/mdr/cdashig/2-0", "title": "Clinical Data Acquisition Standards Harmonization Implementation Guide for Human Clinical Trials Version 2.0", "type": "Implementation Guide"}, "rootItem": {"href": "/mdr/root/cdashig/domains/EC/fields/ECSCAT", "title": "Version-agnostic anchor element for field EC.ECSCAT", "type": "Root Data Element"}, "sdtmigDatasetMappingTargets": [{"href": "/mdr/sdtmig/3-2/datasets/EC/variables/ECSCAT", "title": "Subcategory of Treatment", "type": "SDTM Dataset Variable"}], "self": {"href": "/mdr/cdashig/2-0/domains/EC/fields/ECSCAT", "title": "Subcategory of Treatment", "type": "Data Collection Field"}}, "completionInstructions": "Record the study treatment subcategory, if not pre-printed on the CRF.", "core": "O", "definition": "A sub-division of the ECCAT values based on user defined characteristics.", "implementationNotes": "Sponsor-defined Controlled Terminology. This would most commonly be pre-printed on the CRF or screen and pre-populated in the data management system. This is not typically a question to which the site would provide an answer. ECSCAT can only be used if there is an ECCAT and it must be a subcategorization of ECCAT.", "label": "Subcategory of Treatment", "mappingInstructions": "Maps directly to the SDTMIG variable listed in the column with the heading \"SDTMIG Target\".", "name": "ECSCAT", "ordinal": "7", "prompt": "[Study Treatment Subcategory]; NULL", "questionText": "What is the subcategory of the study treatment?", "simpleDatatype": "Char"}, {"_links": {"implements": {"href": "/mdr/cdash/1-0/classes/Interventions/fields/--TRT", "title": "Name of Treatment", "type": "Class Variable"}, "parentDomain": {"href": "/mdr/cdashig/2-0/domains/EC", "title": "Exposure as Collected", "type": "CDASH Domain"}, "parentProduct": {"href": "/mdr/cdashig/2-0", "title": "Clinical Data Acquisition Standards Harmonization Implementation Guide for Human Clinical Trials Version 2.0", "type": "Implementation Guide"}, "rootItem": {"href": "/mdr/root/cdashig/domains/EC/fields/ECTRT", "title": "Version-agnostic anchor element for field EC.ECTRT", "type": "Root Data Element"}, "sdtmigDatasetMappingTargets": [{"href": "/mdr/sdtmig/3-2/datasets/EC/variables/ECTRT", "title": "Name of Treatment", "type": "SDTM Dataset Variable"}], "self": {"href": "/mdr/cdashig/2-0/domains/EC/fields/ECTRT", "title": "Treatment Name", "type": "Data Collection Field"}}, "completionInstructions": "Record the name of study treatment.", "core": "R/C", "definition": "Name of the intervention or treatment known to the subject and/or administrator.", "implementationNotes": "ECTRT is the name of the intervention or treatment known to the subject and/or administrator and it is the SDTM topic variable. It is a required variable in SDTM and must have a value in CDASH or a plan to populate it in the SDTM submission datasets (i.e. collected or populated from other sources). In a masked study, if treatment is collected and known as Tablet A to the subject or administrator, then ECTRT='TABLET A'. If in a masked study the treatment is not known by a synonym and the data are to be exchanged between sponsors, partners and/or regulatory agency(s), then assign ECTRT the value of 'MASKED'.", "label": "Treatment Name", "mappingInstructions": "Maps directly to the SDTMIG variable listed in the column with the heading \"SDTMIG Target\".", "name": "ECTRT", "ordinal": "8", "prompt": "(Study) Treatment Name", "questionText": "What was the study treatment name?", "simpleDatatype": "Char"}, {"_links": {"codelist": [{"href": "/mdr/root/ct/sdtmct/codelists/C66742", "title": "Version-agnostic anchor resource for codelist C66742", "type": "Root Value Domain"}], "implements": {"href": "/mdr/cdash/1-0/classes/Interventions/fields/--OCCUR", "title": "Occurrence", "type": "Class Variable"}, "parentDomain": {"href": "/mdr/cdashig/2-0/domains/EC", "title": "Exposure as Collected", "type": "CDASH Domain"}, "parentProduct": {"href": "/mdr/cdashig/2-0", "title": "Clinical Data Acquisition Standards Harmonization Implementation Guide for Human Clinical Trials Version 2.0", "type": "Implementation Guide"}, "rootItem": {"href": "/mdr/root/cdashig/domains/EC/fields/ECOCCUR", "title": "Version-agnostic anchor element for field EC.ECOCCUR", "type": "Root Data Element"}, "sdtmigDatasetMappingTargets": [{"href": "/mdr/sdtmig/3-2/datasets/EC/variables/ECOCCUR", "title": "Occurrence", "type": "SDTM Dataset Variable"}], "self": {"href": "/mdr/cdashig/2-0/domains/EC/fields/ECOCCUR", "title": "Exposure Occurrence", "type": "Data Collection Field"}}, "completionInstructions": "Indicate if the subject took study treatment. If Yes, include the appropriate details where indicated.", "core": "O", "definition": "An indication whether the study treatment was administered when information about the occurrence of a specific intervention is solicited.", "implementationNotes": "ECOCCUR is used to indicate whether the subject was actually administered treatment/medication. ECOCCUR should not be used to indicate that the question was not asked or answered.", "label": "Exposure Occurrence", "mappingInstructions": "Maps directly to the SDTMIG variable listed in the column with the heading \"SDTMIG Target\". Not applicable when ECMOOD is \"Scheduled\".", "name": "ECOCCUR", "ordinal": "9", "prompt": "[Study Medication/Treatment]", "questionText": "Was [study treatment/dose] administered?; Has the subject taken [study treatment/dose]?", "simpleDatatype": "Char"}, {"_links": {"implements": {"href": "/mdr/cdash/1-0/classes/Interventions/fields/--REASOC", "title": "Reason for Occur Value", "type": "Class Variable"}, "parentDomain": {"href": "/mdr/cdashig/2-0/domains/EC", "title": "Exposure as Collected", "type": "CDASH Domain"}, "parentProduct": {"href": "/mdr/cdashig/2-0", "title": "Clinical Data Acquisition Standards Harmonization Implementation Guide for Human Clinical Trials Version 2.0", "type": "Implementation Guide"}, "rootItem": {"href": "/mdr/root/cdashig/domains/EC/fields/ECREASOC", "title": "Version-agnostic anchor element for field EC.ECREASOC", "type": "Root Data Element"}, "sdtmigDatasetMappingTargets": [{"href": "/mdr/sdtmig/3-2/datasets/SUPPQUAL/variables/QVAL", "title": "Data Value", "type": "SDTM Dataset Variable"}], "self": {"href": "/mdr/cdashig/2-0/domains/EC/fields/ECREASOC", "title": "Exposure Reason for Occur Value", "type": "Data Collection Field"}}, "completionInstructions": "Indicate why the study treatment was not taken.", "core": "O", "definition": "An explanation of why a scheduled study treatment administration did not occur.", "implementationNotes": "The reason the study treatment was not taken may be chosen from a sponsor-defined codelist (e.g., SUBJECT MISTAKE, SUBJECT REFUSED, etc.) or entered as free text. When --REASOC is used, --OCCUR must also be populated in the SDTM dataset with a value of \"N\".", "label": "Exposure Reason for Occur Value", "mappingInstructions": "This information could be submitted in a SUPPEC dataset as the value of SUPPEC.QVAL where SUPPEC.QNAM = \"ECREASOC\" and SUPPEC.QLABEL =\"Reason for Occur Value\". Refer to the current SDTM and SDTMIG for instructions on placement of non-standard variables in SDTM domains.", "name": "ECREASOC", "ordinal": "10", "prompt": "Reason Not Taken", "questionText": "What was the reason that the study treatment was not taken?", "simpleDatatype": "Char"}, {"_links": {"codelist": [{"href": "/mdr/root/ct/sdtmct/codelists/C125923", "title": "Version-agnostic anchor resource for codelist C125923", "type": "Root Value Domain"}], "implements": {"href": "/mdr/cdash/1-0/classes/Interventions/fields/--MOOD", "title": "Mood", "type": "Class Variable"}, "parentDomain": {"href": "/mdr/cdashig/2-0/domains/EC", "title": "Exposure as Collected", "type": "CDASH Domain"}, "parentProduct": {"href": "/mdr/cdashig/2-0", "title": "Clinical Data Acquisition Standards Harmonization Implementation Guide for Human Clinical Trials Version 2.0", "type": "Implementation Guide"}, "rootItem": {"href": "/mdr/root/cdashig/domains/EC/fields/ECMOOD", "title": "Version-agnostic anchor element for field EC.ECMOOD", "type": "Root Data Element"}, "sdtmigDatasetMappingTargets": [{"href": "/mdr/sdtmig/3-2/datasets/EC/variables/ECMOOD", "title": "Mood", "type": "SDTM Dataset Variable"}], "self": {"href": "/mdr/cdashig/2-0/domains/EC/fields/ECMOOD", "title": "Exposure Mood", "type": "Data Collection Field"}}, "completionInstructions": "Indicate if this record has happened or is intended to happen.", "core": "O", "definition": "Mode or condition of the record specifying whether the intervention (activity) is intended to happen or has happened.", "implementationNotes": "CDISC Controlled Terminology request for (MOOD) code list with values of \"SCHEDULED\" and \"PERFORMED\" has been submitted as of publication of SDTMIG 3.2. \"SCHEDULED\" is for collected subject-level intended dose records. \"PERFORMED\" is for collected subject-level actual dose records. \"Planned\" or \"Scheduled\" can be pre-printed as the CRF name or section header, as applicable. If collecting both the scheduled and performed dosing in the same horizontal record, the sponsor may choose to append \"_SCHEDULED\" to the ECDOSE/ECDOSTXT variable name to delineate the scheduled dose from the performed dose. The performed dose would just be collected with ECDOSE/ECDOSTXT and ECDOSU.", "label": "Exposure Mood", "mappingInstructions": "Maps directly to the SDTMIG variable listed in the column with the heading \"SDTMIG Target\". When implemented ECMOOD must be populated for all records.", "name": "ECMOOD", "ordinal": "11", "prompt": "Scheduled/Performed", "questionText": "Does this record describe scheduled study treatment or performed study treatment?", "simpleDatatype": "Char"}, {"_links": {"implements": {"href": "/mdr/cdash/1-0/classes/Identifiers/fields/--REFID", "title": "Reference ID", "type": "Class Variable"}, "parentDomain": {"href": "/mdr/cdashig/2-0/domains/EC", "title": "Exposure as Collected", "type": "CDASH Domain"}, "parentProduct": {"href": "/mdr/cdashig/2-0", "title": "Clinical Data Acquisition Standards Harmonization Implementation Guide for Human Clinical Trials Version 2.0", "type": "Implementation Guide"}, "rootItem": {"href": "/mdr/root/cdashig/domains/EC/fields/ECREFID", "title": "Version-agnostic anchor element for field EC.ECREFID", "type": "Root Data Element"}, "sdtmigDatasetMappingTargets": [{"href": "/mdr/sdtmig/3-2/datasets/EC/variables/ECREFID", "title": "Reference ID", "type": "SDTM Dataset Variable"}], "self": {"href": "/mdr/cdashig/2-0/domains/EC/fields/ECREFID", "title": "Exposure Reference ID", "type": "Data Collection Field"}}, "completionInstructions": "Record treatment label identifier.", "core": "O", "definition": "An internal or external identifier such as kit number, bottle label, vial identifier.", "implementationNotes": "This packaging identifier (e.g. kit number, bottle label, vial identifier) may be collected in different ways (e.g., affixing label onto CRF or scanning a bar code). For some study dosing regimens, greater granularity for treatment identifiers may be needed. In this situation, sponsors may need to use additional variables.", "label": "Exposure Reference ID", "mappingInstructions": "Maps directly to the SDTMIG variable listed in the column with the heading \"SDTMIG Target\".", "name": "ECREFID", "ordinal": "12", "prompt": "Study Treatment Label Identifier", "questionText": "What is the study treatment label identifier?", "simpleDatatype": "Char"}, {"_links": {"parentDomain": {"href": "/mdr/cdashig/2-0/domains/EC", "title": "Exposure as Collected", "type": "CDASH Domain"}, "parentProduct": {"href": "/mdr/cdashig/2-0", "title": "Clinical Data Acquisition Standards Harmonization Implementation Guide for Human Clinical Trials Version 2.0", "type": "Implementation Guide"}, "rootItem": {"href": "/mdr/root/cdashig/domains/EC/fields/ECLOT", "title": "Version-agnostic anchor element for field EC.ECLOT", "type": "Root Data Element"}, "sdtmigDatasetMappingTargets": [{"href": "/mdr/sdtmig/3-2/datasets/EC/variables/ECLOT", "title": "Lot Number", "type": "SDTM Dataset Variable"}], "self": {"href": "/mdr/cdashig/2-0/domains/EC/fields/ECLOT", "title": "Lot Number", "type": "Data Collection Field"}}, "completionInstructions": "Record the lot number that appears on the container holding the study treatment.", "core": "R/C", "definition": "Lot Number of the ECTRT product.", "implementationNotes": "The Lot Number identifies the manufacturing batch of the study treatment. In open label studies, the reference number on the study treatment container may represent an actual Lot Number and should be submitted using ECLOT. This variable may be populated during the process of creating the SDTM submission datasets. Do not collect other identification variables in this field.", "label": "Lot Number", "mappingInstructions": "Maps directly to the SDTMIG variable listed in the column with the heading \"SDTMIG Target\".", "name": "ECLOT", "ordinal": "13", "prompt": "Lot Number", "questionText": "What was the lot number of the study treatment used?", "simpleDatatype": "Char"}, {"_links": {"codelist": [{"href": "/mdr/root/ct/sdtmct/codelists/C66742", "title": "Version-agnostic anchor resource for codelist C66742", "type": "Root Value Domain"}], "implements": {"href": "/mdr/cdash/1-0/classes/Interventions/fields/--FAST", "title": "Fasting Status", "type": "Class Variable"}, "parentDomain": {"href": "/mdr/cdashig/2-0/domains/EC", "title": "Exposure as Collected", "type": "CDASH Domain"}, "parentProduct": {"href": "/mdr/cdashig/2-0", "title": "Clinical Data Acquisition Standards Harmonization Implementation Guide for Human Clinical Trials Version 2.0", "type": "Implementation Guide"}, "rootItem": {"href": "/mdr/root/cdashig/domains/EC/fields/ECFAST", "title": "Version-agnostic anchor element for field EC.ECFAST", "type": "Root Data Element"}, "sdtmigDatasetMappingTargets": [{"href": "/mdr/sdtmig/3-2/datasets/EC/variables/ECFAST", "title": "Fasting Status", "type": "SDTM Dataset Variable"}], "self": {"href": "/mdr/cdashig/2-0/domains/EC/fields/ECFAST", "title": "Exposure Fasting Status", "type": "Data Collection Field"}}, "completionInstructions": "Record whether the subject was fasting prior to the study treatment being taken.", "core": "O", "definition": "An indication that the subject has abstained from food/water for the specified amount of time.", "implementationNotes": "Some study treatments may have a food effect and it is important to know whether the dose was taken while the subject was fasted.", "label": "Exposure Fasting Status", "mappingInstructions": "Maps directly to the SDTMIG variable listed in the column with the heading \"SDTMIG Target\". Would only be populated when ECMOOD = \"PERFORMED\".", "name": "ECFAST", "ordinal": "14", "prompt": "Fasting", "questionText": "Was the subject fasting?", "simpleDatatype": "Char"}, {"_links": {"codelist": [{"href": "/mdr/root/ct/sdtmct/codelists/C66726", "title": "Version-agnostic anchor resource for codelist C66726", "type": "Root Value Domain"}, {"href": "/mdr/root/ct/cdashct/codelists/C78426", "title": "Version-agnostic anchor resource for codelist C78426", "type": "Root Value Domain"}], "implements": {"href": "/mdr/cdash/1-0/classes/Interventions/fields/--DOSFRM", "title": "Dose Form", "type": "Class Variable"}, "parentDomain": {"href": "/mdr/cdashig/2-0/domains/EC", "title": "Exposure as Collected", "type": "CDASH Domain"}, "parentProduct": {"href": "/mdr/cdashig/2-0", "title": "Clinical Data Acquisition Standards Harmonization Implementation Guide for Human Clinical Trials Version 2.0", "type": "Implementation Guide"}, "rootItem": {"href": "/mdr/root/cdashig/domains/EC/fields/ECDOSFRM", "title": "Version-agnostic anchor element for field EC.ECDOSFRM", "type": "Root Data Element"}, "sdtmigDatasetMappingTargets": [{"href": "/mdr/sdtmig/3-2/datasets/EC/variables/ECDOSFRM", "title": "Dose Form", "type": "SDTM Dataset Variable"}], "self": {"href": "/mdr/cdashig/2-0/domains/EC/fields/ECDOSFRM", "title": "Exposure Dose Form", "type": "Data Collection Field"}}, "completionInstructions": "Record the dose form (e.g., SOLUTION, TABLET, LOTION) or enter the appropriate code from the code list.", "core": "R/C", "definition": "The dosage form in which the ECTRT is physically presented", "implementationNotes": "This must be collected if it cannot be determined from other sources or if there are multiple options for the same study treatment.", "label": "Exposure Dose Form", "mappingInstructions": "Maps directly to the SDTMIG variable listed in the column with the heading \"SDTMIG Target\".", "name": "ECDOSFRM", "ordinal": "15", "prompt": "Dose Form", "questionText": "What was the dose form of the study treatment?", "simpleDatatype": "Char"}, {"_links": {"implements": {"href": "/mdr/cdash/1-0/classes/Timing/fields/--STDAT", "title": "Start Date of Observation", "type": "Class Variable"}, "parentDomain": {"href": "/mdr/cdashig/2-0/domains/EC", "title": "Exposure as Collected", "type": "CDASH Domain"}, "parentProduct": {"href": "/mdr/cdashig/2-0", "title": "Clinical Data Acquisition Standards Harmonization Implementation Guide for Human Clinical Trials Version 2.0", "type": "Implementation Guide"}, "rootItem": {"href": "/mdr/root/cdashig/domains/EC/fields/ECSTDAT", "title": "Version-agnostic anchor element for field EC.ECSTDAT", "type": "Root Data Element"}, "sdtmigDatasetMappingTargets": [{"href": "/mdr/sdtmig/3-2/datasets/EC/variables/ECSTDTC", "title": "Start Date/Time of Treatment", "type": "SDTM Dataset Variable"}], "self": {"href": "/mdr/cdashig/2-0/domains/EC/fields/ECSTDAT", "title": "Exposure Start Date", "type": "Data Collection Field"}}, "completionInstructions": "Record the start date of the study treatment administration using this format (DD-MON-YYYY).", "core": "HR", "definition": "The start date of study treatment, intended or actual represented in an unambiguous date format (e.g., DD-MON-YYYY).", "implementationNotes": "Date when constant dosing interval of the study treatment started or single administration occurred. When collecting the date for an individual dose, the word \"start\" may be omitted from the Question Text and Prompt. When ECMOOD is collected and ECMOOD is \"SCHEDULED\" then use \"intended\" in the question text and prompt. When ECMOOD is collected and ECMOOD is \"PERFORMED\" then use \"actual\" in the question text and prompt.", "label": "Exposure Start Date", "mappingInstructions": "This does not map directly to an SDTMIG variable. For the SDTM submission dataset, concatenate all collected CDASH START DATE and TIME components and populate the SDTMIG variable ECSTDTC in ISO 8601 format.", "name": "ECSTDAT", "ordinal": "16", "prompt": "[Start] Date", "questionText": "What was the [intended/actual] [study treatment/dose] [start] date?", "simpleDatatype": "Char"}, {"_links": {"implements": {"href": "/mdr/cdash/1-0/classes/Timing/fields/--STTIM", "title": "Start Time of Observation", "type": "Class Variable"}, "parentDomain": {"href": "/mdr/cdashig/2-0/domains/EC", "title": "Exposure as Collected", "type": "CDASH Domain"}, "parentProduct": {"href": "/mdr/cdashig/2-0", "title": "Clinical Data Acquisition Standards Harmonization Implementation Guide for Human Clinical Trials Version 2.0", "type": "Implementation Guide"}, "rootItem": {"href": "/mdr/root/cdashig/domains/EC/fields/ECSTTIM", "title": "Version-agnostic anchor element for field EC.ECSTTIM", "type": "Root Data Element"}, "sdtmigDatasetMappingTargets": [{"href": "/mdr/sdtmig/3-2/datasets/EC/variables/ECSTDTC", "title": "Start Date/Time of Treatment", "type": "SDTM Dataset Variable"}], "self": {"href": "/mdr/cdashig/2-0/domains/EC/fields/ECSTTIM", "title": "Exposure Start Time", "type": "Data Collection Field"}}, "completionInstructions": "Record the start time (as complete as possible) when administration of study treatment started.", "core": "R/C", "definition": "The start time of study treatment represented in an unambiguous time format (e.g.,., hh:mm:ss).", "implementationNotes": "Recommend collecting the time a medication was started only when a protocol or data collection scenarios requires it. When collecting the time for an individual dose, the word \"start\" may be omitted from the Question Text and Prompt.", "label": "Exposure Start Time", "mappingInstructions": "This does not map directly to an SDTMIG variable. For the SDTM submission dataset, concatenate all collected CDASH START DATE and TIME components and populate the SDTMIG variable ECSTDTC in ISO 8601 format.", "name": "ECSTTIM", "ordinal": "17", "prompt": "[Start] Time", "questionText": "What was the [intended/actual] [study treatment/dose] (start) time?", "simpleDatatype": "Char"}, {"_links": {"implements": {"href": "/mdr/cdash/1-0/classes/Timing/fields/--ENDAT", "title": "End Date of Observation", "type": "Class Variable"}, "parentDomain": {"href": "/mdr/cdashig/2-0/domains/EC", "title": "Exposure as Collected", "type": "CDASH Domain"}, "parentProduct": {"href": "/mdr/cdashig/2-0", "title": "Clinical Data Acquisition Standards Harmonization Implementation Guide for Human Clinical Trials Version 2.0", "type": "Implementation Guide"}, "rootItem": {"href": "/mdr/root/cdashig/domains/EC/fields/ECENDAT", "title": "Version-agnostic anchor element for field EC.ECENDAT", "type": "Root Data Element"}, "sdtmigDatasetMappingTargets": [{"href": "/mdr/sdtmig/3-2/datasets/EC/variables/ECENDTC", "title": "End Date/Time of Treatment", "type": "SDTM Dataset Variable"}], "self": {"href": "/mdr/cdashig/2-0/domains/EC/fields/ECENDAT", "title": "Exposure End Date", "type": "Data Collection Field"}}, "completionInstructions": "Record the end date of the study treatment administration using this format( DD-MON-YYYY).", "core": "R/C", "definition": "The end date of study treatment represented in an unambiguous date format (e.g., DD-MON-YYYY).", "implementationNotes": "Date when study treatment period stopped. If start date and end date are not expected to be on the same date, the collection of the end date is required. If the study design indicates that the start and end date are on the same day, the collection of the end date is not required since it can be assigned to be equal to the start date.", "label": "Exposure End Date", "mappingInstructions": "This does not map directly to an SDTMIG variable. For the SDTM submission dataset, concatenate all collected CDASH END DATE and TIME components and populate the SDTMIG variable ECENDTC in ISO 8601 format.", "name": "ECENDAT", "ordinal": "18", "prompt": "[End] Date", "questionText": "What was the [intended/actual] [study treatment/dose] [end] date?", "simpleDatatype": "Char"}, {"_links": {"implements": {"href": "/mdr/cdash/1-0/classes/Timing/fields/--ENTIM", "title": "End Time of Observation", "type": "Class Variable"}, "parentDomain": {"href": "/mdr/cdashig/2-0/domains/EC", "title": "Exposure as Collected", "type": "CDASH Domain"}, "parentProduct": {"href": "/mdr/cdashig/2-0", "title": "Clinical Data Acquisition Standards Harmonization Implementation Guide for Human Clinical Trials Version 2.0", "type": "Implementation Guide"}, "rootItem": {"href": "/mdr/root/cdashig/domains/EC/fields/ECENTIM", "title": "Version-agnostic anchor element for field EC.ECENTIM", "type": "Root Data Element"}, "sdtmigDatasetMappingTargets": [{"href": "/mdr/sdtmig/3-2/datasets/EC/variables/ECENDTC", "title": "End Date/Time of Treatment", "type": "SDTM Dataset Variable"}], "self": {"href": "/mdr/cdashig/2-0/domains/EC/fields/ECENTIM", "title": "Exposure End Time", "type": "Data Collection Field"}}, "completionInstructions": "Record the time, (as complete as possible) when study treatment administration stopped (e.g., for infusions this is the time when the infusion ended).", "core": "R/C", "definition": "The end time of study treatment represented in an unambiguous time format (e.g., hh:mm:ss).", "implementationNotes": "Recommend collecting the time a medication was ended when a protocol or data collection scenarios requires it. For infusions, the end time of the infusion is typically needed.", "label": "Exposure End Time", "mappingInstructions": "This does not map directly to an SDTMIG variable. For the SDTM submission dataset, concatenate all collected CDASH END DATE and TIME components and populate the SDTMIG variable ECENDTC in ISO 8601 format.", "name": "ECENTIM", "ordinal": "19", "prompt": "[End] Time", "questionText": "What was the [intended/actual] [study treatment/dose] end time?", "simpleDatatype": "Char"}, {"_links": {"implements": {"href": "/mdr/cdash/1-0/classes/Interventions/fields/--DSTXT", "title": "Dose Description", "type": "Class Variable"}, "parentDomain": {"href": "/mdr/cdashig/2-0/domains/EC", "title": "Exposure as Collected", "type": "CDASH Domain"}, "parentProduct": {"href": "/mdr/cdashig/2-0", "title": "Clinical Data Acquisition Standards Harmonization Implementation Guide for Human Clinical Trials Version 2.0", "type": "Implementation Guide"}, "rootItem": {"href": "/mdr/root/cdashig/domains/EC/fields/ECDSTXT", "title": "Version-agnostic anchor element for field EC.ECDSTXT", "type": "Root Data Element"}, "sdtmigDatasetMappingTargets": [{"href": "/mdr/sdtmig/3-2/datasets/EC/variables/ECDOSTXT", "title": "Dose Description", "type": "SDTM Dataset Variable"}, {"href": "/mdr/sdtmig/3-2/datasets/EC/variables/ECDOSE", "title": "Dose", "type": "SDTM Dataset Variable"}], "self": {"href": "/mdr/cdashig/2-0/domains/EC/fields/ECDSTXT", "title": "Exposure Dose Description", "type": "Data Collection Field"}}, "completionInstructions": "Record the dose or amount of study treatment that was administered to/taken by the subject in the period recorded; from the start date/time to the end date/time inclusive.", "core": "R/C", "definition": "The dose of study medication taken per administration.", "implementationNotes": "Dose or amount taken for single administration of study treatment or per constant dosing interval recorded. Dose must be collected if it cannot be determined via other methods (e.g., from diary data, drug accountability data, protocol etc.). Care should be taken when mapping ECDSTXT. The data collected in this dose text-format field should be separated or mapped to either ECDOSE if numeric or ECDOSTXT if text.", "label": "Exposure Dose Description", "mappingInstructions": "This does not map directly to an SDTMIG variable. The data collected in this dose text-format field should be mapped to either ECDOSE if numeric or ECDOSTXT if text.", "name": "ECDSTXT", "ordinal": "20", "prompt": "Dose", "questionText": "What was the dose per administration (of study treatment)?", "simpleDatatype": "Char"}, {"_links": {"codelist": [{"href": "/mdr/root/ct/sdtmct/codelists/C71620", "title": "Version-agnostic anchor resource for codelist C71620", "type": "Root Value Domain"}, {"href": "/mdr/root/ct/cdashct/codelists/C78423", "title": "Version-agnostic anchor resource for codelist C78423", "type": "Root Value Domain"}], "implements": {"href": "/mdr/cdash/1-0/classes/Interventions/fields/--DOSU", "title": "Dose Unit", "type": "Class Variable"}, "parentDomain": {"href": "/mdr/cdashig/2-0/domains/EC", "title": "Exposure as Collected", "type": "CDASH Domain"}, "parentProduct": {"href": "/mdr/cdashig/2-0", "title": "Clinical Data Acquisition Standards Harmonization Implementation Guide for Human Clinical Trials Version 2.0", "type": "Implementation Guide"}, "rootItem": {"href": "/mdr/root/cdashig/domains/EC/fields/ECDOSU", "title": "Version-agnostic anchor element for field EC.ECDOSU", "type": "Root Data Element"}, "sdtmigDatasetMappingTargets": [{"href": "/mdr/sdtmig/3-2/datasets/EC/variables/ECDOSU", "title": "Dose Units", "type": "SDTM Dataset Variable"}], "self": {"href": "/mdr/cdashig/2-0/domains/EC/fields/ECDOSU", "title": "Exposure Dose Unit", "type": "Data Collection Field"}}, "completionInstructions": "Record the unit of dose or amount taken per period recorded (e.g., ng, mg, mg/kg).", "core": "R/C", "definition": "The unit for intended dose per administration for ECDOSE, ECDOSTOT, or ECDOSTXT.", "implementationNotes": "Unit of dose or amount taken per constant dosing interval recorded. Dose unit must be collected if it cannot be determined via other methods (e.g., determined from protocol, randomization data). The unit should be pre-printed on the CRF or a field provided on the CRF to capture it. A CDASH Subset Controlled Terminology Codelist Name is available for dose and volume units. In blinded trials, the collected unit may be tablet, capsule, etc., since the actual unit is also blinded.", "label": "Exposure Dose Unit", "mappingInstructions": "Maps directly to the SDTMIG variable listed in the column with the heading \"SDTMIG Target\".", "name": "ECDOSU", "ordinal": "21", "prompt": "Units", "questionText": "What were the units for the dose?", "simpleDatatype": "Char"}, {"_links": {"codelist": [{"href": "/mdr/root/ct/sdtmct/codelists/C71113", "title": "Version-agnostic anchor resource for codelist C71113", "type": "Root Value Domain"}, {"href": "/mdr/root/ct/cdashct/codelists/C78745", "title": "Version-agnostic anchor resource for codelist C78745", "type": "Root Value Domain"}], "implements": {"href": "/mdr/cdash/1-0/classes/Interventions/fields/--DOSFRQ", "title": "Dosing Frequency per Interval", "type": "Class Variable"}, "parentDomain": {"href": "/mdr/cdashig/2-0/domains/EC", "title": "Exposure as Collected", "type": "CDASH Domain"}, "parentProduct": {"href": "/mdr/cdashig/2-0", "title": "Clinical Data Acquisition Standards Harmonization Implementation Guide for Human Clinical Trials Version 2.0", "type": "Implementation Guide"}, "rootItem": {"href": "/mdr/root/cdashig/domains/EC/fields/ECDOSFRQ", "title": "Version-agnostic anchor element for field EC.ECDOSFRQ", "type": "Root Data Element"}, "sdtmigDatasetMappingTargets": [{"href": "/mdr/sdtmig/3-2/datasets/EC/variables/ECDOSFRQ", "title": "Dosing Frequency per Interval", "type": "SDTM Dataset Variable"}], "self": {"href": "/mdr/cdashig/2-0/domains/EC/fields/ECDOSFRQ", "title": "Exposure Dosing Frequency per Interval", "type": "Data Collection Field"}}, "completionInstructions": "Record the frequency the study treatment was administered for a defined period of time (e.g., BID, QID, TID).", "core": "R/C", "definition": "The number of doses given/administered/taken during a specific interval.", "implementationNotes": "This may be collected if it cannot be determined from other sources or if there are multiple options. When possible, the options for dose/amount frequency are pre-printed on the CRF. When collected, the recommendation is to collect dosing information in separate fields (e.g., ECDOSE, ECDOSEU, ECDOSFRQ) for specific and consistent data collection and to enable programmatically utilizing these data.", "label": "Exposure Dosing Frequency per Interval", "mappingInstructions": "Maps directly to the SDTMIG variable listed in the column with the heading \"SDTMIG Target\".", "name": "ECDOSFRQ", "ordinal": "22", "prompt": "Frequency", "questionText": "What was the frequency of study treatment dosing?", "simpleDatatype": "Char"}, {"_links": {"codelist": [{"href": "/mdr/root/ct/sdtmct/codelists/C66729", "title": "Version-agnostic anchor resource for codelist C66729", "type": "Root Value Domain"}, {"href": "/mdr/root/ct/cdashct/codelists/C78425", "title": "Version-agnostic anchor resource for codelist C78425", "type": "Root Value Domain"}], "implements": {"href": "/mdr/cdash/1-0/classes/Interventions/fields/--ROUTE", "title": "Route of Administration", "type": "Class Variable"}, "parentDomain": {"href": "/mdr/cdashig/2-0/domains/EC", "title": "Exposure as Collected", "type": "CDASH Domain"}, "parentProduct": {"href": "/mdr/cdashig/2-0", "title": "Clinical Data Acquisition Standards Harmonization Implementation Guide for Human Clinical Trials Version 2.0", "type": "Implementation Guide"}, "rootItem": {"href": "/mdr/root/cdashig/domains/EC/fields/ECROUTE", "title": "Version-agnostic anchor element for field EC.ECROUTE", "type": "Root Data Element"}, "sdtmigDatasetMappingTargets": [{"href": "/mdr/sdtmig/3-2/datasets/EC/variables/ECROUTE", "title": "Route of Administration", "type": "SDTM Dataset Variable"}], "self": {"href": "/mdr/cdashig/2-0/domains/EC/fields/ECROUTE", "title": "Exposure Route of Administration", "type": "Data Collection Field"}}, "completionInstructions": "Record the route of administration (e.g., IV, ORAL, TRANSDERMAL) or enter the appropriate code from the code list.", "core": "R/C", "definition": "The route of administration of the study treatment.", "implementationNotes": "This may be collected if it cannot be determined via other methods (e.g., from protocol, ) or if there are multiple options.", "label": "Exposure Route of Administration", "mappingInstructions": "Maps directly to the SDTMIG variable listed in the column with the heading \"SDTMIG Target\".", "name": "ECROUTE", "ordinal": "23", "prompt": "Route", "questionText": "What was the route of administration (of the study treatment)?", "simpleDatatype": "Char"}, {"_links": {"implements": {"href": "/mdr/cdash/1-0/classes/Interventions/fields/--DOSRGM", "title": "Intended Dose Regimen", "type": "Class Variable"}, "parentDomain": {"href": "/mdr/cdashig/2-0/domains/EC", "title": "Exposure as Collected", "type": "CDASH Domain"}, "parentProduct": {"href": "/mdr/cdashig/2-0", "title": "Clinical Data Acquisition Standards Harmonization Implementation Guide for Human Clinical Trials Version 2.0", "type": "Implementation Guide"}, "rootItem": {"href": "/mdr/root/cdashig/domains/EC/fields/ECDOSRGM", "title": "Version-agnostic anchor element for field EC.ECDOSRGM", "type": "Root Data Element"}, "sdtmigDatasetMappingTargets": [{"href": "/mdr/sdtmig/3-2/datasets/EC/variables/ECDOSRGM", "title": "Intended Dose Regimen", "type": "SDTM Dataset Variable"}], "self": {"href": "/mdr/cdashig/2-0/domains/EC/fields/ECDOSRGM", "title": "Intended Dose Regimen", "type": "Data Collection Field"}}, "completionInstructions": "Record the regimen for the study medication.", "core": "O", "definition": "The text description of the (intended) schedule or regimen for the Intervention.", "implementationNotes": "The regimen information (e.g., TWO WEEKS ON, TWO WEEKS OFF) may further clarify the dose administration and dose frequency. This may be pre-printed or collected. The sponsor may wish to create a codelist to collect this data consistently.", "label": "Intended Dose Regimen", "mappingInstructions": "Maps directly to the SDTMIG variable listed in the column with the heading \"SDTMIG Target\".", "name": "ECDOSRGM", "ordinal": "24", "prompt": "Intended Dose Regimen", "questionText": "What was the intended dose regimen?", "simpleDatatype": "Char"}, {"_links": {"codelist": [{"href": "/mdr/root/ct/sdtmct/codelists/C66742", "title": "Version-agnostic anchor resource for codelist C66742", "type": "Root Value Domain"}], "implements": {"href": "/mdr/cdash/1-0/classes/Interventions/fields/--DOSADJ", "title": "Dose Adjusted", "type": "Class Variable"}, "parentDomain": {"href": "/mdr/cdashig/2-0/domains/EC", "title": "Exposure as Collected", "type": "CDASH Domain"}, "parentProduct": {"href": "/mdr/cdashig/2-0", "title": "Clinical Data Acquisition Standards Harmonization Implementation Guide for Human Clinical Trials Version 2.0", "type": "Implementation Guide"}, "rootItem": {"href": "/mdr/root/cdashig/domains/EC/fields/ECDOSADJ", "title": "Version-agnostic anchor element for field EC.ECDOSADJ", "type": "Root Data Element"}, "self": {"href": "/mdr/cdashig/2-0/domains/EC/fields/ECDOSADJ", "title": "Dose Adjusted", "type": "Data Collection Field"}}, "completionInstructions": "Select either Yes or No to indicate whether there was a change in dosing.", "core": "O", "definition": "An indication whether or not the dose was adjusted.", "implementationNotes": "Typically, the intent/purpose of collecting this field is to help with data cleaning and monitoring as it provides a definitive response regarding any dose changes. It provides verification that the associate field on the CRF (ECADJ) was deliberately left blank. However, the sponsor may collect whether the dose was adjusted, without collecting the reason for the change. When using ECMOOD this field should not be used.", "label": "Dose Adjusted", "mappingInstructions": "When ECADJ is collected, does not map to an SDTMIG variable. The SDTM Annotated CRF is annotated to indicate that this field is NOT SUBMITTED. When ECADJ is not collected, the sponsor may submit this variable as a SUPPQ.", "name": "ECDOSADJ", "ordinal": "25", "prompt": "(Dose) Adjusted", "questionText": "Was the dose adjusted?", "simpleDatatype": "Char"}, {"_links": {"implements": {"href": "/mdr/cdash/1-0/classes/Interventions/fields/--ADJ", "title": "Reason for Dose Adjustment", "type": "Class Variable"}, "parentDomain": {"href": "/mdr/cdashig/2-0/domains/EC", "title": "Exposure as Collected", "type": "CDASH Domain"}, "parentProduct": {"href": "/mdr/cdashig/2-0", "title": "Clinical Data Acquisition Standards Harmonization Implementation Guide for Human Clinical Trials Version 2.0", "type": "Implementation Guide"}, "rootItem": {"href": "/mdr/root/cdashig/domains/EC/fields/ECADJ", "title": "Version-agnostic anchor element for field EC.ECADJ", "type": "Root Data Element"}, "sdtmigDatasetMappingTargets": [{"href": "/mdr/sdtmig/3-2/datasets/EC/variables/ECADJ", "title": "Reason for Dose Adjustment", "type": "SDTM Dataset Variable"}], "self": {"href": "/mdr/cdashig/2-0/domains/EC/fields/ECADJ", "title": "Reason for Dose Adjustment", "type": "Data Collection Field"}}, "completionInstructions": "If there was a change in dosing, record the reason for change.", "core": "O", "definition": "Description or explanation of why a dose of the study treatment is adjusted.", "implementationNotes": "Captures reason dose was changed or modified. The reason may be chosen from a sponsor defined list (for example, adverse event, insufficient response, etc.) or entered as free text. May be used for variations from protocol-specified doses, or changes from expected doses. Used only when an adjustment is represented in EX dataset", "label": "Reason for Dose Adjustment", "mappingInstructions": "Maps directly to the SDTMIG variable listed in the column with the heading \"SDTMIG Target\".", "name": "ECADJ", "ordinal": "26", "prompt": "Reason Adjusted", "questionText": "What was the reason the dose was adjusted?", "simpleDatatype": "Char"}, {"_links": {"implements": {"href": "/mdr/cdash/1-0/classes/Interventions/fields/--ITRPD", "title": "Interruption Duration", "type": "Class Variable"}, "parentDomain": {"href": "/mdr/cdashig/2-0/domains/EC", "title": "Exposure as Collected", "type": "CDASH Domain"}, "parentProduct": {"href": "/mdr/cdashig/2-0", "title": "Clinical Data Acquisition Standards Harmonization Implementation Guide for Human Clinical Trials Version 2.0", "type": "Implementation Guide"}, "rootItem": {"href": "/mdr/root/cdashig/domains/EC/fields/ECITRPD", "title": "Version-agnostic anchor element for field EC.ECITRPD", "type": "Root Data Element"}, "sdtmigDatasetMappingTargets": [{"href": "/mdr/sdtmig/3-2/datasets/SUPPQUAL/variables/QVAL", "title": "Data Value", "type": "SDTM Dataset Variable"}], "self": {"href": "/mdr/cdashig/2-0/domains/EC/fields/ECITRPD", "title": "Exposure Interruption Duration", "type": "Data Collection Field"}}, "completionInstructions": "Record the duration of treatment interruption.", "core": "O", "definition": "The duration of the treatment interruption as collected.", "implementationNotes": "In some situations, the duration of the interruption may be calculated from the administration start and end times recorded elsewhere in the CRF.", "label": "Exposure Interruption Duration", "mappingInstructions": "This does not map directly to an SDTMIG variable. This information could be submitted in a SUPPEC dataset as the value of SUPPEC.QVAL where SUPPEC.QNAM= \"ECITRPD\" and SUPPEC.QLABEL= \"Collected Interruption Duration\". Concatenate the collected treatment interruption duration and the duration unit components and create ECITRPD using ISO 8601 Period format. Refer to the current SDTM and SDTMIG for instructions on placement of non-standard variables in SDTM domains.", "name": "ECITRPD", "ordinal": "27", "prompt": "Interruption Duration", "questionText": "If the dose was interrupted, how long was the interruption?", "simpleDatatype": "Char"}, {"_links": {"codelist": [{"href": "/mdr/root/ct/sdtmct/codelists/C71620", "title": "Version-agnostic anchor resource for codelist C71620", "type": "Root Value Domain"}, {"href": "/mdr/root/ct/cdashct/codelists/C78427", "title": "Version-agnostic anchor resource for codelist C78427", "type": "Root Value Domain"}], "implements": {"href": "/mdr/cdash/1-0/classes/Interventions/fields/--ITRPDU", "title": "Interruption Duration Unit", "type": "Class Variable"}, "parentDomain": {"href": "/mdr/cdashig/2-0/domains/EC", "title": "Exposure as Collected", "type": "CDASH Domain"}, "parentProduct": {"href": "/mdr/cdashig/2-0", "title": "Clinical Data Acquisition Standards Harmonization Implementation Guide for Human Clinical Trials Version 2.0", "type": "Implementation Guide"}, "rootItem": {"href": "/mdr/root/cdashig/domains/EC/fields/ECITRPDU", "title": "Version-agnostic anchor element for field EC.ECITRPDU", "type": "Root Data Element"}, "sdtmigDatasetMappingTargets": [{"href": "/mdr/sdtmig/3-2/datasets/SUPPQUAL/variables/QVAL", "title": "Data Value", "type": "SDTM Dataset Variable"}], "self": {"href": "/mdr/cdashig/2-0/domains/EC/fields/ECITRPDU", "title": "Exposure Interruption Duration Units", "type": "Data Collection Field"}}, "completionInstructions": "Record the unit (e.g., MINUTES, HOURS, DAYS) for the duration of treatment interruption.", "core": "O", "definition": "The unit for the duration of treatment interruption.", "implementationNotes": "The unit should be collected as a qualifier to the number for duration.", "label": "Exposure Interruption Duration Units", "mappingInstructions": "This does not map directly to an SDTMIG variable. This information could be submitted in a SUPPEC dataset as the value of SUPPEC.QVAL where SUPPEC.QNAM= \"ECITRPD\" and SUPPEC.QLABEL= \"Collected Interruption Duration\". Concatenate the collected treatment interruption duration and the duration unit components and create ECITRPD using ISO 8601 Period format. Refer to the current SDTM and SDTMIG for instructions on placement of non-standard variables in SDTM domains.", "name": "ECITRPDU", "ordinal": "28", "prompt": "Interruption Duration Unit", "questionText": "If the dose was interrupted, what was the unit for the interruption duration?", "simpleDatatype": "Char"}, {"_links": {"codelist": [{"href": "/mdr/root/ct/sdtmct/codelists/C74456", "title": "Version-agnostic anchor resource for codelist C74456", "type": "Root Value Domain"}], "implements": {"href": "/mdr/cdash/1-0/classes/Interventions/fields/--LOC", "title": "Location", "type": "Class Variable"}, "parentDomain": {"href": "/mdr/cdashig/2-0/domains/EC", "title": "Exposure as Collected", "type": "CDASH Domain"}, "parentProduct": {"href": "/mdr/cdashig/2-0", "title": "Clinical Data Acquisition Standards Harmonization Implementation Guide for Human Clinical Trials Version 2.0", "type": "Implementation Guide"}, "rootItem": {"href": "/mdr/root/cdashig/domains/EC/fields/ECLOC", "title": "Version-agnostic anchor element for field EC.ECLOC", "type": "Root Data Element"}, "sdtmigDatasetMappingTargets": [{"href": "/mdr/sdtmig/3-2/datasets/EC/variables/ECLOC", "title": "Location of Dose Administration", "type": "SDTM Dataset Variable"}], "self": {"href": "/mdr/cdashig/2-0/domains/EC/fields/ECLOC", "title": "Exposure Location", "type": "Data Collection Field"}}, "completionInstructions": "Record the body location where the study treatment was administered (e.g., SHOULDER, HIP, ARM).", "core": "O", "definition": "A description of the anatomical location of administration.", "implementationNotes": "Collected or pre-printed when the sponsor needs to identify the specific anatomical location where the study treatment was administered. LAT, DIR, PORTOT are used to further describe the anatomical location.", "label": "Exposure Location", "mappingInstructions": "Maps directly to the SDTMIG variable listed in the column with the heading \"SDTMIG Target\".", "name": "ECLOC", "ordinal": "29", "prompt": "Anatomical Location", "questionText": "What was the anatomical location of the (study treatment) administration?", "simpleDatatype": "Char"}, {"_links": {"implements": {"href": "/mdr/cdash/1-0/classes/Interventions/fields/--VAMT", "title": "Treatment Vehicle Amount", "type": "Class Variable"}, "parentDomain": {"href": "/mdr/cdashig/2-0/domains/EC", "title": "Exposure as Collected", "type": "CDASH Domain"}, "parentProduct": {"href": "/mdr/cdashig/2-0", "title": "Clinical Data Acquisition Standards Harmonization Implementation Guide for Human Clinical Trials Version 2.0", "type": "Implementation Guide"}, "rootItem": {"href": "/mdr/root/cdashig/domains/EC/fields/ECVAMT", "title": "Version-agnostic anchor element for field EC.ECVAMT", "type": "Root Data Element"}, "self": {"href": "/mdr/cdashig/2-0/domains/EC/fields/ECVAMT", "title": "Exposure Vehicle Amount", "type": "Data Collection Field"}}, "completionInstructions": "Record the total amount (treatment +vehicle) that was administered/given to the subject.", "core": "O", "definition": "The amount of the prepared product (treatment + vehicle) administered or given.", "implementationNotes": "Administration amount that was given to the subject. Note: should not be the diluent amount alone. The ECTRTV field may be collected if it cannot be determined from other sources.", "label": "Exposure Vehicle Amount", "mappingInstructions": "Maps directly to the SDTMIG variable listed in the column with the heading \"SDTMIG Target\". The SDTM variable ECTRTV may also be populated during the process of creating the SDTM submission datasets.", "name": "ECVAMT", "ordinal": "30", "prompt": "Total Amount (Drug + Vehicle)", "questionText": "What was the total amount (Drug + Vehicle)(of study treatment) administered?", "simpleDatatype": "Char"}, {"_links": {"codelist": [{"href": "/mdr/root/ct/sdtmct/codelists/C71620", "title": "Version-agnostic anchor resource for codelist C71620", "type": "Root Value Domain"}], "implements": {"href": "/mdr/cdash/1-0/classes/Interventions/fields/--VAMTU", "title": "Treatment Vehicle Amount Unit", "type": "Class Variable"}, "parentDomain": {"href": "/mdr/cdashig/2-0/domains/EC", "title": "Exposure as Collected", "type": "CDASH Domain"}, "parentProduct": {"href": "/mdr/cdashig/2-0", "title": "Clinical Data Acquisition Standards Harmonization Implementation Guide for Human Clinical Trials Version 2.0", "type": "Implementation Guide"}, "rootItem": {"href": "/mdr/root/cdashig/domains/EC/fields/ECVAMTU", "title": "Version-agnostic anchor element for field EC.ECVAMTU", "type": "Root Data Element"}, "self": {"href": "/mdr/cdashig/2-0/domains/EC/fields/ECVAMTU", "title": "Exposure Vehicle Amount Units", "type": "Data Collection Field"}}, "completionInstructions": "Record the unit of total amount (treatment +vehicle) administered/given to the subject (e.g., mL).", "core": "O", "definition": "The unit of measurement for the prepared product (treatment + vehicle).", "implementationNotes": "Unit of the administration amount.", "label": "Exposure Vehicle Amount Units", "mappingInstructions": "Maps directly to the SDTMIG variable listed in the column with the heading \"SDTMIG Target\".", "name": "ECVAMTU", "ordinal": "31", "prompt": "Unit", "questionText": "What was the unit for the amount (of study treatment) administered?", "simpleDatatype": "Char"}, {"_links": {"implements": {"href": "/mdr/cdash/1-0/classes/Interventions/fields/--FLRT", "title": "[ --TRT] Infusion Rate", "type": "Class Variable"}, "parentDomain": {"href": "/mdr/cdashig/2-0/domains/EC", "title": "Exposure as Collected", "type": "CDASH Domain"}, "parentProduct": {"href": "/mdr/cdashig/2-0", "title": "Clinical Data Acquisition Standards Harmonization Implementation Guide for Human Clinical Trials Version 2.0", "type": "Implementation Guide"}, "rootItem": {"href": "/mdr/root/cdashig/domains/EC/fields/ECFLRT", "title": "Version-agnostic anchor element for field EC.ECFLRT", "type": "Root Data Element"}, "sdtmigDatasetMappingTargets": [{"href": "/mdr/sdtmig/3-2/datasets/SUPPQUAL/variables/QVAL", "title": "Data Value", "type": "SDTM Dataset Variable"}], "self": {"href": "/mdr/cdashig/2-0/domains/EC/fields/ECFLRT", "title": "Exposure Infusion Rate", "type": "Data Collection Field"}}, "completionInstructions": "Record the Rate of Infusion (e.g., if rate is 10 mL/min. Record 10 as the infusion rate).", "core": "O", "definition": "The flow rate for the total amount of drug + vehicle administered to the subject.", "implementationNotes": "Infusion rate can be used to derive dose.", "label": "Exposure Infusion Rate", "mappingInstructions": "This does not map directly to an SDTMIG variable. This information could be submitted in a SUPPEC dataset as the value of SUPPEC.QVAL where SUPPEC.QNAM=\"ECFLRT\" and SUPPEC.QLABEL= \"Infusion Rate\". Refer to the current SDTM and SDTMIG for instructions on placement of non-standard variables in SDTM domains.", "name": "ECFLRT", "ordinal": "32", "prompt": "Infusion Rate", "questionText": "What was the study treatment infusion rate?", "simpleDatatype": "Char"}, {"_links": {"codelist": [{"href": "/mdr/root/ct/sdtmct/codelists/C71620", "title": "Version-agnostic anchor resource for codelist C71620", "type": "Root Value Domain"}, {"href": "/mdr/root/ct/cdashct/codelists/C78429", "title": "Version-agnostic anchor resource for codelist C78429", "type": "Root Value Domain"}], "implements": {"href": "/mdr/cdash/1-0/classes/Interventions/fields/--FLRTU", "title": "[--TRT] Infusion Rate Unit", "type": "Class Variable"}, "parentDomain": {"href": "/mdr/cdashig/2-0/domains/EC", "title": "Exposure as Collected", "type": "CDASH Domain"}, "parentProduct": {"href": "/mdr/cdashig/2-0", "title": "Clinical Data Acquisition Standards Harmonization Implementation Guide for Human Clinical Trials Version 2.0", "type": "Implementation Guide"}, "rootItem": {"href": "/mdr/root/cdashig/domains/EC/fields/ECFLRTU", "title": "Version-agnostic anchor element for field EC.ECFLRTU", "type": "Root Data Element"}, "sdtmigDatasetMappingTargets": [{"href": "/mdr/sdtmig/3-2/datasets/SUPPQUAL/variables/QVAL", "title": "Data Value", "type": "SDTM Dataset Variable"}], "self": {"href": "/mdr/cdashig/2-0/domains/EC/fields/ECFLRTU", "title": "Exposure Infusion Rate Unit", "type": "Data Collection Field"}}, "completionInstructions": "Record the unit for the infusion rate (e.g., mL/min).", "core": "O", "definition": "The unit of measure for the flow rate for the total amount of drug + vehicle administered to the subject.", "implementationNotes": "Unit of the infusion rate.", "label": "Exposure Infusion Rate Unit", "mappingInstructions": "This does not map directly to an SDTMIG variable. This information could be submitted in a SUPPEC dataset as the value of SUPPEC.QVAL where SUPPEC.QNAM=\"ECFLRTU\" and SUPPEC.QLABEL= \"Infusion Rate Unit\". Refer to the current SDTM and SDTMIG for instructions on placement of non-standard variables in SDTM domains.", "name": "ECFLRTU", "ordinal": "33", "prompt": "Infusion Rate Unit", "questionText": "What was the unit for the (study treatment) infusion rate?", "simpleDatatype": "Char"}, {"_links": {"implements": {"href": "/mdr/cdash/1-0/classes/Timing/fields/--TPT", "title": "Planned Time Point Name", "type": "Class Variable"}, "parentDomain": {"href": "/mdr/cdashig/2-0/domains/EC", "title": "Exposure as Collected", "type": "CDASH Domain"}, "parentProduct": {"href": "/mdr/cdashig/2-0", "title": "Clinical Data Acquisition Standards Harmonization Implementation Guide for Human Clinical Trials Version 2.0", "type": "Implementation Guide"}, "rootItem": {"href": "/mdr/root/cdashig/domains/EC/fields/ECTPT", "title": "Version-agnostic anchor element for field EC.ECTPT", "type": "Root Data Element"}, "sdtmigDatasetMappingTargets": [{"href": "/mdr/sdtmig/3-2/datasets/EC/variables/ECTPT", "title": "Planned Time Point Name", "type": "SDTM Dataset Variable"}], "self": {"href": "/mdr/cdashig/2-0/domains/EC/fields/ECTPT", "title": "Exposure Planned Time Point Name", "type": "Data Collection Field"}}, "completionInstructions": "Record the planned time point of study treatment administration if not pre-printed on the CRF.", "core": "R/C", "definition": "A text description of planned time point when measurements should be taken as defined in the protocol.", "implementationNotes": "Planned time point are needed to differentiate multiple sequential assessments. It is recommended that time points should be pre-printed on the CRF rather than collected in a field that requires the site to enter text. If the form is laid out as a grid, then words such as Planned Time Point can be included as the column header.", "label": "Exposure Planned Time Point Name", "mappingInstructions": "Maps directly to the SDTMIG variable listed in the column with the heading \"SDTMIG Target\". See SDTMIG for additional information on representing time points. The SDTMIG time point anchors ECTPTREF (text description) and ECRFTDTC (date/time) may be needed, as well as SDTMIG variables ECTPTNUM, ECELTM.", "name": "ECTPT", "ordinal": "34", "prompt": "[Planned Time Point Name]", "questionText": "What was the planned time point for study treatment?", "simpleDatatype": "Char"}, {"_links": {"codelist": [{"href": "/mdr/root/ct/sdtmct/codelists/C66742", "title": "Version-agnostic anchor resource for codelist C66742", "type": "Root Value Domain"}], "implements": {"href": "/mdr/cdash/1-0/classes/Interventions/fields/--TRTCMP", "title": "Completed Treatment", "type": "Class Variable"}, "parentDomain": {"href": "/mdr/cdashig/2-0/domains/EC", "title": "Exposure as Collected", "type": "CDASH Domain"}, "parentProduct": {"href": "/mdr/cdashig/2-0", "title": "Clinical Data Acquisition Standards Harmonization Implementation Guide for Human Clinical Trials Version 2.0", "type": "Implementation Guide"}, "rootItem": {"href": "/mdr/root/cdashig/domains/EC/fields/ECTRTCMP", "title": "Version-agnostic anchor element for field EC.ECTRTCMP", "type": "Root Data Element"}, "sdtmigDatasetMappingTargets": [{"href": "/mdr/sdtmig/3-2/datasets/SUPPQUAL/variables/QVAL", "title": "Data Value", "type": "SDTM Dataset Variable"}], "self": {"href": "/mdr/cdashig/2-0/domains/EC/fields/ECTRTCMP", "title": "Completed Treatment", "type": "Data Collection Field"}}, "completionInstructions": "Select either Yes or No to indicate whether subject has completed the full course of treatment.", "core": "O", "definition": "An indication whether the subject completed the intended regimen.", "implementationNotes": "Depending on how the study treatment details are collected via the CRF/ eCRF, it may be possible to derive those data if the regimen data are collected.", "label": "Completed Treatment", "mappingInstructions": "This does not map directly to an SDTMIG variable. This information could be submitted in a SUPPEC dataset as the value of SUPPEC.QVAL where SUPPEC.QNAM = \"ECTRTCMP\" and SUPPEC.QLABEL =\"Completed Treatment\". Refer to the current SDTM and SDTMIG for instructions on placement of non-standard variables in SDTM domains.", "name": "ECTRTCMP", "ordinal": "35", "prompt": "Completed Treatment", "questionText": "Did the subject complete the full course of study treatment?", "simpleDatatype": "Char"}, {"_links": {"codelist": [{"href": "/mdr/root/ct/sdtmct/codelists/C99073", "title": "Version-agnostic anchor resource for codelist C99073", "type": "Root Value Domain"}], "implements": {"href": "/mdr/cdash/1-0/classes/Interventions/fields/--LAT", "title": "Laterality", "type": "Class Variable"}, "parentDomain": {"href": "/mdr/cdashig/2-0/domains/EC", "title": "Exposure as Collected", "type": "CDASH Domain"}, "parentProduct": {"href": "/mdr/cdashig/2-0", "title": "Clinical Data Acquisition Standards Harmonization Implementation Guide for Human Clinical Trials Version 2.0", "type": "Implementation Guide"}, "rootItem": {"href": "/mdr/root/cdashig/domains/EC/fields/ECLAT", "title": "Version-agnostic anchor element for field EC.ECLAT", "type": "Root Data Element"}, "sdtmigDatasetMappingTargets": [{"href": "/mdr/sdtmig/3-2/datasets/EC/variables/ECLAT", "title": "Laterality", "type": "SDTM Dataset Variable"}], "self": {"href": "/mdr/cdashig/2-0/domains/EC/fields/ECLAT", "title": "Exposure as Collected Laterality", "type": "Data Collection Field"}}, "completionInstructions": "Record the side of the body location where the study treatment was administered (e.g., Left, Right).", "core": "O", "definition": "Qualifier for anatomical location further detailing side of the body for the study treatment administration.", "implementationNotes": "Further detailing the laterality of the location where the study treatment was administered. This may be pre-printed or collected. Sponsors may collect the data using a subset list of Controlled Terminology on the CRF.", "label": "Exposure as Collected Laterality", "mappingInstructions": "Maps directly to the SDTMIG variable listed in the column with the heading \"SDTMIG Target\".", "name": "ECLAT", "ordinal": "36", "prompt": "Side", "questionText": "What was the side of the anatomical location of the (study treatment) administration?", "simpleDatatype": "Char"}, {"_links": {"codelist": [{"href": "/mdr/root/ct/sdtmct/codelists/C99074", "title": "Version-agnostic anchor resource for codelist C99074", "type": "Root Value Domain"}], "implements": {"href": "/mdr/cdash/1-0/classes/Interventions/fields/--DIR", "title": "Directionality", "type": "Class Variable"}, "parentDomain": {"href": "/mdr/cdashig/2-0/domains/EC", "title": "Exposure as Collected", "type": "CDASH Domain"}, "parentProduct": {"href": "/mdr/cdashig/2-0", "title": "Clinical Data Acquisition Standards Harmonization Implementation Guide for Human Clinical Trials Version 2.0", "type": "Implementation Guide"}, "rootItem": {"href": "/mdr/root/cdashig/domains/EC/fields/ECDIR", "title": "Version-agnostic anchor element for field EC.ECDIR", "type": "Root Data Element"}, "sdtmigDatasetMappingTargets": [{"href": "/mdr/sdtmig/3-2/datasets/EC/variables/ECDIR", "title": "Directionality", "type": "SDTM Dataset Variable"}], "self": {"href": "/mdr/cdashig/2-0/domains/EC/fields/ECDIR", "title": "Exposure Directionality", "type": "Data Collection Field"}}, "completionInstructions": "Record the directionality of the body location where the study treatment was administered (e.g., Anterior, Lower, Proximal, Upper).", "core": "O", "definition": "Qualifier further detailing the position of the anatomical location relative to the center of the body, organ, or specimen.", "implementationNotes": "May be pre-printed or collected when the sponsor needs to identify the directionality of the anatomical location. Sponsors may collect the data using a subset list of Controlled Terminology on the CRF.", "label": "Exposure Directionality", "mappingInstructions": "Maps directly to the SDTMIG variable listed in the column with the heading \"SDTMIG Target\".", "name": "ECDIR", "ordinal": "37", "prompt": "Directionality", "questionText": "What was the directionality of the anatomical location of the (study treatment) administration?", "simpleDatatype": "Char"}], "label": "Exposure as Collected", "name": "EC", "ordinal": "4"}, {"_links": {"parentClass": {"href": "/mdr/cdashig/2-0/classes/Interventions", "title": "Interventions Observation Class", "type": "Class"}, "parentProduct": {"href": "/mdr/cdashig/2-0", "title": "Clinical Data Acquisition Standards Harmonization Implementation Guide for Human Clinical Trials Version 2.0", "type": "Implementation Guide"}, "priorVersion": {"href": "/mdr/cdashig/1-1-1/domains/EX", "title": "Exposure", "type": "CDASH Domain"}, "self": {"href": "/mdr/cdashig/2-0/domains/EX", "title": "Exposure", "type": "CDASH Domain"}}, "fields": [{"_links": {"implements": {"href": "/mdr/cdash/1-0/classes/Identifiers/fields/STUDYID", "title": "Study Identifier", "type": "Class Variable"}, "parentDomain": {"href": "/mdr/cdashig/2-0/domains/EX", "title": "Exposure", "type": "CDASH Domain"}, "parentProduct": {"href": "/mdr/cdashig/2-0", "title": "Clinical Data Acquisition Standards Harmonization Implementation Guide for Human Clinical Trials Version 2.0", "type": "Implementation Guide"}, "priorVersion": {"href": "/mdr/cdashig/1-1-1/domains/EX/fields/STUDYID", "type": "Data Collection Field"}, "rootItem": {"href": "/mdr/root/cdashig/domains/EX/fields/STUDYID", "title": "Version-agnostic anchor element for field EX.STUDYID", "type": "Root Data Element"}, "sdtmigDatasetMappingTargets": [{"href": "/mdr/sdtmig/3-2/datasets/EX/variables/STUDYID", "title": "Study Identifier", "type": "SDTM Dataset Variable"}], "self": {"href": "/mdr/cdashig/2-0/domains/EX/fields/STUDYID", "title": "Study Identifier", "type": "Data Collection Field"}}, "core": "HR", "definition": "A unique identifier for a study.", "implementationNotes": "While this field is not typically captured on a CRF, it should be displayed clearly on the CRF and/or the EDC system. This field can be included into the database or populated during SDTM-based dataset creation before submission.", "label": "Study Identifier", "mappingInstructions": "Maps directly to the SDTMIG variable listed in the column with the heading \"SDTMIG Target\".", "name": "STUDYID", "ordinal": "1", "prompt": "[Protocol/Study]", "questionText": "What is the study identifier?", "simpleDatatype": "Char"}, {"_links": {"implements": {"href": "/mdr/cdash/1-0/domains/DM/fields/SITEID", "title": "Study Site Identifier", "type": "Data Collection Field"}, "parentDomain": {"href": "/mdr/cdashig/2-0/domains/EX", "title": "Exposure", "type": "CDASH Domain"}, "parentProduct": {"href": "/mdr/cdashig/2-0", "title": "Clinical Data Acquisition Standards Harmonization Implementation Guide for Human Clinical Trials Version 2.0", "type": "Implementation Guide"}, "priorVersion": {"href": "/mdr/cdashig/1-1-1/domains/EX/fields/SITEID", "type": "Data Collection Field"}, "rootItem": {"href": "/mdr/root/cdashig/domains/EX/fields/SITEID", "title": "Version-agnostic anchor element for field EX.SITEID", "type": "Root Data Element"}, "sdtmigDatasetMappingTargets": [{"href": "/mdr/sdtmig/3-2/datasets/DM/variables/SITEID", "title": "Study Site Identifier", "type": "SDTM Dataset Variable"}], "self": {"href": "/mdr/cdashig/2-0/domains/EX/fields/SITEID", "title": "Study Site Identifier", "type": "Data Collection Field"}}, "core": "HR", "definition": "A unique identifier for a site within a study.", "implementationNotes": "Paper: This is typically preprinted in the header of each CRF page for single site studies. For studies with multiple sites, this field may be left blank so that the number can be recorded by the site, or it may be preprinted for the CRFs that are shipped to each site. EDC: This should be prepopulated.", "label": "Study Site Identifier", "mappingInstructions": "Maps directly to the SDTMIG variable listed in the column with the heading \"SDTMIG Target\".", "name": "SITEID", "ordinal": "2", "prompt": "Site (Identifier)", "questionText": "What is the site identifier?", "simpleDatatype": "Char"}, {"_links": {"implements": {"href": "/mdr/cdash/1-0/classes/Identifiers/fields/SUBJID", "title": "Subject Identifier for the Study", "type": "Class Variable"}, "parentDomain": {"href": "/mdr/cdashig/2-0/domains/EX", "title": "Exposure", "type": "CDASH Domain"}, "parentProduct": {"href": "/mdr/cdashig/2-0", "title": "Clinical Data Acquisition Standards Harmonization Implementation Guide for Human Clinical Trials Version 2.0", "type": "Implementation Guide"}, "priorVersion": {"href": "/mdr/cdashig/1-1-1/domains/EX/fields/SUBJID", "type": "Data Collection Field"}, "rootItem": {"href": "/mdr/root/cdashig/domains/EX/fields/SUBJID", "title": "Version-agnostic anchor element for field EX.SUBJID", "type": "Root Data Element"}, "sdtmigDatasetMappingTargets": [{"href": "/mdr/sdtmig/3-2/datasets/DM/variables/SUBJID", "title": "Subject Identifier for the Study", "type": "SDTM Dataset Variable"}], "self": {"href": "/mdr/cdashig/2-0/domains/EX/fields/SUBJID", "title": "Subject Identifier for the Study", "type": "Data Collection Field"}}, "completionInstructions": "Record the identifier for the subject.", "core": "HR", "definition": "A unique subject identifier within a site and a study.", "implementationNotes": "Paper: This is typically recorded in the header of each CRF page. EDC: The subject identifiers may be provided to the site using a pre-populated list in the system. This CDASH variable is typically collected in all CDASH domains. However, this CDASH variable is populated only in the SDTMIG DM domain. For more information, refer to Study Data Tabulation Model.", "label": "Subject Identifier for the Study", "mappingInstructions": "Maps directly to the SDTMIG variable listed in the column with the heading \"SDTMIG Target\".", "name": "SUBJID", "ordinal": "3", "prompt": "Subject", "questionText": "What is the subject identifier?", "simpleDatatype": "Char"}, {"_links": {"codelist": [{"href": "/mdr/root/ct/sdtmct/codelists/C99079", "title": "Version-agnostic anchor resource for codelist C99079", "type": "Root Value Domain"}], "implements": {"href": "/mdr/cdash/1-0/classes/Timing/fields/EPOCH", "title": "Epoch", "type": "Class Variable"}, "parentDomain": {"href": "/mdr/cdashig/2-0/domains/EX", "title": "Exposure", "type": "CDASH Domain"}, "parentProduct": {"href": "/mdr/cdashig/2-0", "title": "Clinical Data Acquisition Standards Harmonization Implementation Guide for Human Clinical Trials Version 2.0", "type": "Implementation Guide"}, "rootItem": {"href": "/mdr/root/cdashig/domains/EX/fields/EPOCH", "title": "Version-agnostic anchor element for field EX.EPOCH", "type": "Root Data Element"}, "sdtmigDatasetMappingTargets": [{"href": "/mdr/sdtmig/3-2/datasets/EX/variables/EPOCH", "title": "Epoch", "type": "SDTM Dataset Variable"}], "self": {"href": "/mdr/cdashig/2-0/domains/EX/fields/EPOCH", "title": "Epoch", "type": "Data Collection Field"}}, "completionInstructions": "[protocol specific]", "core": "R/C", "definition": "Name of the Trial Epoch with which this Element of the Arm is associated.", "implementationNotes": "If the same information is collected more than once in different periods/parts of a study (e.g., Disposition), EPOCH may be needed to differentiate them. Typically, the trial epoch will be pre-printed on the CRF as the title of the page. See SDTMIG for further information regarding EPOCH.", "label": "Epoch", "mappingInstructions": "Maps directly to the SDTMIG variable listed in the column with the heading \"SDTMIG Target\".", "name": "EPOCH", "ordinal": "4", "prompt": "Trial Period", "questionText": "What is the trial period?", "simpleDatatype": "Char"}, {"_links": {"codelist": [{"href": "/mdr/root/ct/sdtmct/codelists/C66742", "title": "Version-agnostic anchor resource for codelist C66742", "type": "Root Value Domain"}], "implements": {"href": "/mdr/cdash/1-0/classes/Interventions/fields/--YN", "title": "Any [Intervention]", "type": "Class Variable"}, "parentDomain": {"href": "/mdr/cdashig/2-0/domains/EX", "title": "Exposure", "type": "CDASH Domain"}, "parentProduct": {"href": "/mdr/cdashig/2-0", "title": "Clinical Data Acquisition Standards Harmonization Implementation Guide for Human Clinical Trials Version 2.0", "type": "Implementation Guide"}, "priorVersion": {"href": "/mdr/cdashig/1-1-1/domains/EX/fields/EXYN", "type": "Data Collection Field"}, "rootItem": {"href": "/mdr/root/cdashig/domains/EX/fields/EXYN", "title": "Version-agnostic anchor element for field EX.EXYN", "type": "Root Data Element"}, "self": {"href": "/mdr/cdashig/2-0/domains/EX/fields/EXYN", "title": "Any Study Treatment Taken", "type": "Data Collection Field"}}, "completionInstructions": "Indicate if the subject took any medications. If Yes, include the appropriate details where indicated.", "core": "O", "definition": "An indication whether or not the subject took study medication/treatment.", "implementationNotes": "The intent/purpose of collecting this field is to help with data cleaning and monitoring. It provides verification that all other fields on the CRF were deliberately left blank. The EXYN variable is a cleaning or EDC convention meant to indicate that the exposure as collected form should be completed or inserted into the case book. EXOCCUR would be used when the actual drug name is preprinted on the CRF. While these might be equivalent in a single drug study, there are differences in how they would be used in most trials. Therefore, it does not map into the SDTM variable EXOCCUR, since EXOCCUR indicates whether the subject was actually administered treatment/medication. If actual treatment data is available (EXYN = \"Y\"), ECOCCUR may be populated based on whether subject was actually administered treatment/medication.", "label": "Any Study Treatment Taken", "mappingInstructions": "Does not map to an SDTMIG variable. The SDTM Annotated CRF is annotated to indicate that this field is NOT SUBMITTED.", "name": "EXYN", "ordinal": "5", "prompt": "Any Study Treatments", "questionText": "Were any study treatments taken?", "simpleDatatype": "Char"}, {"_links": {"implements": {"href": "/mdr/cdash/1-0/classes/Interventions/fields/--CAT", "title": "Category", "type": "Class Variable"}, "parentDomain": {"href": "/mdr/cdashig/2-0/domains/EX", "title": "Exposure", "type": "CDASH Domain"}, "parentProduct": {"href": "/mdr/cdashig/2-0", "title": "Clinical Data Acquisition Standards Harmonization Implementation Guide for Human Clinical Trials Version 2.0", "type": "Implementation Guide"}, "rootItem": {"href": "/mdr/root/cdashig/domains/EX/fields/EXCAT", "title": "Version-agnostic anchor element for field EX.EXCAT", "type": "Root Data Element"}, "sdtmigDatasetMappingTargets": [{"href": "/mdr/sdtmig/3-2/datasets/EX/variables/EXCAT", "title": "Category of Treatment", "type": "SDTM Dataset Variable"}], "self": {"href": "/mdr/cdashig/2-0/domains/EX/fields/EXCAT", "title": "Category of Treatment", "type": "Data Collection Field"}}, "completionInstructions": "Record the study treatment category, if not pre-printed on the CRF.", "core": "O", "definition": "A grouping of topic-variable values based on user defined characteristics.", "implementationNotes": "Sponsor-defined Controlled Terminology. This would most commonly be either a heading, or a pre-printed category value on the CRF and not a question to which the site would provide an answer. If a question is asked, the response would typically be a sponsor-defined codelist. If the form is laid out as a grid, then words such as \"Category\" can be included as the column header.", "label": "Category of Treatment", "mappingInstructions": "Maps directly to the SDTMIG variable listed in the column with the heading \"SDTMIG Target\".", "name": "EXCAT", "ordinal": "6", "prompt": "[Study Treatment Category]; NULL", "questionText": "What is the category of the study treatment?", "simpleDatatype": "Char"}, {"_links": {"implements": {"href": "/mdr/cdash/1-0/classes/Interventions/fields/--SCAT", "title": "Subcategory", "type": "Class Variable"}, "parentDomain": {"href": "/mdr/cdashig/2-0/domains/EX", "title": "Exposure", "type": "CDASH Domain"}, "parentProduct": {"href": "/mdr/cdashig/2-0", "title": "Clinical Data Acquisition Standards Harmonization Implementation Guide for Human Clinical Trials Version 2.0", "type": "Implementation Guide"}, "rootItem": {"href": "/mdr/root/cdashig/domains/EX/fields/EXSCAT", "title": "Version-agnostic anchor element for field EX.EXSCAT", "type": "Root Data Element"}, "sdtmigDatasetMappingTargets": [{"href": "/mdr/sdtmig/3-2/datasets/EX/variables/EXSCAT", "title": "Subcategory of Treatment", "type": "SDTM Dataset Variable"}], "self": {"href": "/mdr/cdashig/2-0/domains/EX/fields/EXSCAT", "title": "Subcategory of Treatment", "type": "Data Collection Field"}}, "completionInstructions": "Record the study treatment subcategory, if not pre-printed on the CRF.", "core": "O", "definition": "A sub-division of the EXCAT values based on user defined characteristics.", "implementationNotes": "Sponsor-defined Controlled Terminology. This would most commonly be pre-printed on the CRF or screen and pre-populated in the data management system. This is not typically a question to which the site would provide an answer. EXSCAT can only be used if there is an EXCAT and it must be a subcategorization of EXCAT.", "label": "Subcategory of Treatment", "mappingInstructions": "Maps directly to the SDTMIG variable listed in the column with the heading \"SDTMIG Target\".", "name": "EXSCAT", "ordinal": "7", "prompt": "[Study Treatment Subcategory]; NULL", "questionText": "What is the subcategory of the study treatment?", "simpleDatatype": "Char"}, {"_links": {"implements": {"href": "/mdr/cdash/1-0/classes/Interventions/fields/--TRT", "title": "Name of Treatment", "type": "Class Variable"}, "parentDomain": {"href": "/mdr/cdashig/2-0/domains/EX", "title": "Exposure", "type": "CDASH Domain"}, "parentProduct": {"href": "/mdr/cdashig/2-0", "title": "Clinical Data Acquisition Standards Harmonization Implementation Guide for Human Clinical Trials Version 2.0", "type": "Implementation Guide"}, "priorVersion": {"href": "/mdr/cdashig/1-1-1/domains/EX/fields/EXTRT", "type": "Data Collection Field"}, "rootItem": {"href": "/mdr/root/cdashig/domains/EX/fields/EXTRT", "title": "Version-agnostic anchor element for field EX.EXTRT", "type": "Root Data Element"}, "sdtmigDatasetMappingTargets": [{"href": "/mdr/sdtmig/3-2/datasets/EX/variables/EXTRT", "title": "Name of Treatment", "type": "SDTM Dataset Variable"}], "self": {"href": "/mdr/cdashig/2-0/domains/EX/fields/EXTRT", "title": "Treatment Name", "type": "Data Collection Field"}}, "completionInstructions": "Record the name of study treatment.", "core": "R/C", "definition": "Name of the study treatment or intervention given per single administration or during the \"constant dosing interval\" for the observation.", "implementationNotes": "EXTRT captures the name of the investigational treatment. This is typically collected for open label studies and populated for blinded studies during the SDTM-based dataset creation. Since EXTRT is the SDTMIG topic variable, it is a required variable in SDTM and must have a value in CDASH or a plan to populate it in the SDTM submission datasets (i.e. collected or populated from other sources).", "label": "Treatment Name", "mappingInstructions": "Maps directly to the SDTMIG variable listed in the column with the heading \"SDTMIG Target\".", "name": "EXTRT", "ordinal": "8", "prompt": "Study Treatment Name", "questionText": "What was the study treatment?", "simpleDatatype": "Char"}, {"_links": {"implements": {"href": "/mdr/cdash/1-0/classes/Identifiers/fields/--REFID", "title": "Reference ID", "type": "Class Variable"}, "parentDomain": {"href": "/mdr/cdashig/2-0/domains/EX", "title": "Exposure", "type": "CDASH Domain"}, "parentProduct": {"href": "/mdr/cdashig/2-0", "title": "Clinical Data Acquisition Standards Harmonization Implementation Guide for Human Clinical Trials Version 2.0", "type": "Implementation Guide"}, "priorVersion": {"href": "/mdr/cdashig/1-1-1/domains/EX/fields/EXREFID", "type": "Data Collection Field"}, "rootItem": {"href": "/mdr/root/cdashig/domains/EX/fields/EXREFID", "title": "Version-agnostic anchor element for field EX.EXREFID", "type": "Root Data Element"}, "sdtmigDatasetMappingTargets": [{"href": "/mdr/sdtmig/3-2/datasets/EX/variables/EXREFID", "title": "Reference ID", "type": "SDTM Dataset Variable"}], "self": {"href": "/mdr/cdashig/2-0/domains/EX/fields/EXREFID", "title": "Exposure Reference ID", "type": "Data Collection Field"}}, "completionInstructions": "Record treatment label identifier.", "core": "R/C", "definition": "An internal or external identifier such as kit number, bottle label, vial identifier.", "implementationNotes": "This packaging identifier (e.g. kit number, bottle label, vial identifier) may be collected in different ways (e.g. affixing label onto CRF or scanning a bar code). For some study dosing regimens, greater granularity for treatment identifiers may be needed", "label": "Exposure Reference ID", "mappingInstructions": "Maps directly to the SDTMIG variable listed in the column with the heading \"SDTMIG Target\".", "name": "EXREFID", "ordinal": "9", "prompt": "Treatment Label Identifier", "questionText": "What is the study treatment label identifier?", "simpleDatatype": "Char"}, {"_links": {"parentDomain": {"href": "/mdr/cdashig/2-0/domains/EX", "title": "Exposure", "type": "CDASH Domain"}, "parentProduct": {"href": "/mdr/cdashig/2-0", "title": "Clinical Data Acquisition Standards Harmonization Implementation Guide for Human Clinical Trials Version 2.0", "type": "Implementation Guide"}, "priorVersion": {"href": "/mdr/cdashig/1-1-1/domains/EX/fields/EXLOT", "type": "Data Collection Field"}, "rootItem": {"href": "/mdr/root/cdashig/domains/EX/fields/EXLOT", "title": "Version-agnostic anchor element for field EX.EXLOT", "type": "Root Data Element"}, "sdtmigDatasetMappingTargets": [{"href": "/mdr/sdtmig/3-2/datasets/EX/variables/EXLOT", "title": "Lot Number", "type": "SDTM Dataset Variable"}], "self": {"href": "/mdr/cdashig/2-0/domains/EX/fields/EXLOT", "title": "Lot Number", "type": "Data Collection Field"}}, "completionInstructions": "Record the lot number that appears on the container holding the study treatment.", "core": "R/C", "definition": "Lot Number of the EXTRT product.", "implementationNotes": "The Lot Number identifies the manufacturing batch of the study treatment. In open label studies, the reference number on the study treatment container may represent an actual Lot Number and is submitted using EXLOT. This variable may be populated during the process of creating the SDTM submission datasets. Do not collect other identification variables in this field.", "label": "Lot Number", "mappingInstructions": "Maps directly to the SDTMIG variable listed in the column with the heading \"SDTMIG Target\".", "name": "EXLOT", "ordinal": "10", "prompt": "Lot Number", "questionText": "What was the lot number of the study treatment used?", "simpleDatatype": "Char"}, {"_links": {"codelist": [{"href": "/mdr/root/ct/sdtmct/codelists/C66742", "title": "Version-agnostic anchor resource for codelist C66742", "type": "Root Value Domain"}], "implements": {"href": "/mdr/cdash/1-0/classes/Interventions/fields/--FAST", "title": "Fasting Status", "type": "Class Variable"}, "parentDomain": {"href": "/mdr/cdashig/2-0/domains/EX", "title": "Exposure", "type": "CDASH Domain"}, "parentProduct": {"href": "/mdr/cdashig/2-0", "title": "Clinical Data Acquisition Standards Harmonization Implementation Guide for Human Clinical Trials Version 2.0", "type": "Implementation Guide"}, "rootItem": {"href": "/mdr/root/cdashig/domains/EX/fields/EXFAST", "title": "Version-agnostic anchor element for field EX.EXFAST", "type": "Root Data Element"}, "sdtmigDatasetMappingTargets": [{"href": "/mdr/sdtmig/3-2/datasets/EX/variables/EXFAST", "title": "Fasting Status", "type": "SDTM Dataset Variable"}], "self": {"href": "/mdr/cdashig/2-0/domains/EX/fields/EXFAST", "title": "Exposure Fasting Status", "type": "Data Collection Field"}}, "completionInstructions": "Record whether the subject was fasting prior to the study treatment being taken.", "core": "O", "definition": "An indication that the subject has abstained from food/water for the specified amount of time.", "implementationNotes": "Some study treatments may have a food effect and it is important to know whether the dose was taken while the subject was fasted.", "label": "Exposure Fasting Status", "mappingInstructions": "Maps directly to the SDTMIG variable listed in the column with the heading \"SDTMIG Target\".", "name": "EXFAST", "ordinal": "11", "prompt": "Fasting", "questionText": "Was the subject fasting?", "simpleDatatype": "Char"}, {"_links": {"codelist": [{"href": "/mdr/root/ct/sdtmct/codelists/C66726", "title": "Version-agnostic anchor resource for codelist C66726", "type": "Root Value Domain"}, {"href": "/mdr/root/ct/cdashct/codelists/C78426", "title": "Version-agnostic anchor resource for codelist C78426", "type": "Root Value Domain"}], "implements": {"href": "/mdr/cdash/1-0/classes/Interventions/fields/--DOSFRM", "title": "Dose Form", "type": "Class Variable"}, "parentDomain": {"href": "/mdr/cdashig/2-0/domains/EX", "title": "Exposure", "type": "CDASH Domain"}, "parentProduct": {"href": "/mdr/cdashig/2-0", "title": "Clinical Data Acquisition Standards Harmonization Implementation Guide for Human Clinical Trials Version 2.0", "type": "Implementation Guide"}, "priorVersion": {"href": "/mdr/cdashig/1-1-1/domains/EX/fields/EXDOSFRM", "type": "Data Collection Field"}, "rootItem": {"href": "/mdr/root/cdashig/domains/EX/fields/EXDOSFRM", "title": "Version-agnostic anchor element for field EX.EXDOSFRM", "type": "Root Data Element"}, "sdtmigDatasetMappingTargets": [{"href": "/mdr/sdtmig/3-2/datasets/EX/variables/EXDOSFRM", "title": "Dose Form", "type": "SDTM Dataset Variable"}], "self": {"href": "/mdr/cdashig/2-0/domains/EX/fields/EXDOSFRM", "title": "Exposure Dose Form", "type": "Data Collection Field"}}, "completionInstructions": "Record the dose form (e.g., SOLUTION, TABLET, LOTION) or enter the appropriate code from the code list.", "core": "R/C", "definition": "The dosage form in which the EXTRT is physically presented.", "implementationNotes": "This must be collected if it cannot be determined from other sources or if there are multiple options.", "label": "Exposure Dose Form", "mappingInstructions": "Maps directly to the SDTMIG variable listed in the column with the heading \"SDTMIG Target\".", "name": "EXDOSFRM", "ordinal": "12", "prompt": "Dose Form", "questionText": "What was the dose form of the study treatment?", "simpleDatatype": "Char"}, {"_links": {"implements": {"href": "/mdr/cdash/1-0/classes/Timing/fields/--STDAT", "title": "Start Date of Observation", "type": "Class Variable"}, "parentDomain": {"href": "/mdr/cdashig/2-0/domains/EX", "title": "Exposure", "type": "CDASH Domain"}, "parentProduct": {"href": "/mdr/cdashig/2-0", "title": "Clinical Data Acquisition Standards Harmonization Implementation Guide for Human Clinical Trials Version 2.0", "type": "Implementation Guide"}, "priorVersion": {"href": "/mdr/cdashig/1-1-1/domains/EX/fields/EXSTDAT", "type": "Data Collection Field"}, "rootItem": {"href": "/mdr/root/cdashig/domains/EX/fields/EXSTDAT", "title": "Version-agnostic anchor element for field EX.EXSTDAT", "type": "Root Data Element"}, "sdtmigDatasetMappingTargets": [{"href": "/mdr/sdtmig/3-2/datasets/EX/variables/EXSTDTC", "title": "Start Date/Time of Treatment", "type": "SDTM Dataset Variable"}], "self": {"href": "/mdr/cdashig/2-0/domains/EX/fields/EXSTDAT", "title": "Exposure Start Date", "type": "Data Collection Field"}}, "completionInstructions": "Record the start date of the study treatment administration using this format (DD-MON-YYYY).", "core": "HR", "definition": "The [start] date of study treatment represented in an unambiguous date format (e.g., DD-MON-YYYY).", "implementationNotes": "Date when constant dosing interval of the study treatment started or single administration occurred. When collecting the date for an individual dose, the word \"start\" may be omitted from the Question Text and Prompt.", "label": "Exposure Start Date", "mappingInstructions": "This does not map directly to an SDTMIG variable. For the SDTM submission dataset, concatenate all collected CDASH START DATE and TIME components and populate the SDTMIG variable EXSTDTC in ISO 8601 format.", "name": "EXSTDAT", "ordinal": "13", "prompt": "[Start] Date", "questionText": "What was the [intended/actual] [study treatment/dose] [start] date?", "simpleDatatype": "Char"}, {"_links": {"implements": {"href": "/mdr/cdash/1-0/classes/Timing/fields/--STTIM", "title": "Start Time of Observation", "type": "Class Variable"}, "parentDomain": {"href": "/mdr/cdashig/2-0/domains/EX", "title": "Exposure", "type": "CDASH Domain"}, "parentProduct": {"href": "/mdr/cdashig/2-0", "title": "Clinical Data Acquisition Standards Harmonization Implementation Guide for Human Clinical Trials Version 2.0", "type": "Implementation Guide"}, "priorVersion": {"href": "/mdr/cdashig/1-1-1/domains/EX/fields/EXSTTIM", "type": "Data Collection Field"}, "rootItem": {"href": "/mdr/root/cdashig/domains/EX/fields/EXSTTIM", "title": "Version-agnostic anchor element for field EX.EXSTTIM", "type": "Root Data Element"}, "sdtmigDatasetMappingTargets": [{"href": "/mdr/sdtmig/3-2/datasets/EX/variables/EXSTDTC", "title": "Start Date/Time of Treatment", "type": "SDTM Dataset Variable"}], "self": {"href": "/mdr/cdashig/2-0/domains/EX/fields/EXSTTIM", "title": "Exposure Start Time", "type": "Data Collection Field"}}, "completionInstructions": "Record the start time (as complete as possible) when administration of study treatment started.", "core": "R/C", "definition": "The [start] time of the study treatment represented in an unambiguous time format (e.g., hh:mm:ss).", "implementationNotes": "Recommend collecting the time a medication was started only when a protocol or data collection scenarios requires it.", "label": "Exposure Start Time", "mappingInstructions": "This does not map directly to an SDTMIG variable. For the SDTM submission dataset, concatenate all collected CDASH START DATE and TIME components and populate the SDTMIG variable EXSTDTC in ISO 8601 format.", "name": "EXSTTIM", "ordinal": "14", "prompt": "[Start] Time", "questionText": "What was the [intended/actual] [study treatment/dose] (start) time?", "simpleDatatype": "Char"}, {"_links": {"implements": {"href": "/mdr/cdash/1-0/classes/Timing/fields/--ENDAT", "title": "End Date of Observation", "type": "Class Variable"}, "parentDomain": {"href": "/mdr/cdashig/2-0/domains/EX", "title": "Exposure", "type": "CDASH Domain"}, "parentProduct": {"href": "/mdr/cdashig/2-0", "title": "Clinical Data Acquisition Standards Harmonization Implementation Guide for Human Clinical Trials Version 2.0", "type": "Implementation Guide"}, "priorVersion": {"href": "/mdr/cdashig/1-1-1/domains/EX/fields/EXENDAT", "type": "Data Collection Field"}, "rootItem": {"href": "/mdr/root/cdashig/domains/EX/fields/EXENDAT", "title": "Version-agnostic anchor element for field EX.EXENDAT", "type": "Root Data Element"}, "sdtmigDatasetMappingTargets": [{"href": "/mdr/sdtmig/3-2/datasets/EX/variables/EXENDTC", "title": "End Date/Time of Treatment", "type": "SDTM Dataset Variable"}], "self": {"href": "/mdr/cdashig/2-0/domains/EX/fields/EXENDAT", "title": "Exposure End Date", "type": "Data Collection Field"}}, "completionInstructions": "Record the end date or last date of administration of study treatment using this format (DD-MON-YYYY).", "core": "R/C", "definition": "The end date of study treatment represented in an unambiguous date format (e.g., DD-MON-YYYY).", "implementationNotes": "If start date and end date are not expected to be on the same date, the end date is required. If the study design indicates that the start and end date are on the same day, the end date is not required since it can be assigned to be equal to the start date.", "label": "Exposure End Date", "mappingInstructions": "This does not map directly to an SDTMIG variable. For the SDTM submission dataset, concatenate all collected CDASH END DATE and TIME components and populate the SDTMIG variable EXENDTC in ISO 8601 format.", "name": "EXENDAT", "ordinal": "15", "prompt": "[End] Date", "questionText": "What was the [intended/actual] [treatment/dose] [end] date?", "simpleDatatype": "Char"}, {"_links": {"implements": {"href": "/mdr/cdash/1-0/classes/Timing/fields/--ENTIM", "title": "End Time of Observation", "type": "Class Variable"}, "parentDomain": {"href": "/mdr/cdashig/2-0/domains/EX", "title": "Exposure", "type": "CDASH Domain"}, "parentProduct": {"href": "/mdr/cdashig/2-0", "title": "Clinical Data Acquisition Standards Harmonization Implementation Guide for Human Clinical Trials Version 2.0", "type": "Implementation Guide"}, "priorVersion": {"href": "/mdr/cdashig/1-1-1/domains/EX/fields/EXENTIM", "type": "Data Collection Field"}, "rootItem": {"href": "/mdr/root/cdashig/domains/EX/fields/EXENTIM", "title": "Version-agnostic anchor element for field EX.EXENTIM", "type": "Root Data Element"}, "sdtmigDatasetMappingTargets": [{"href": "/mdr/sdtmig/3-2/datasets/EX/variables/EXENDTC", "title": "End Date/Time of Treatment", "type": "SDTM Dataset Variable"}], "self": {"href": "/mdr/cdashig/2-0/domains/EX/fields/EXENTIM", "title": "Exposure End Time", "type": "Data Collection Field"}}, "completionInstructions": "Record the time, (as complete as possible) when study treatment administration stopped (e.g., for infusions this is the time when the infusion ended).", "core": "R/C", "definition": "The end time of treatment represented in an unambiguous time format (e.g., hh:mm:ss).", "implementationNotes": "Recommend collecting the time a medication was ended when a protocol or data collection scenarios requires it. For infusions, the end time of the infusion is typically needed.", "label": "Exposure End Time", "mappingInstructions": "This does not map directly to an SDTMIG variable. For the SDTM submission dataset, concatenate all collected CDASH END DATE and TIME components and populate the SDTMIG variable EXENDTC in ISO 8601 format.", "name": "EXENTIM", "ordinal": "16", "prompt": "[End] Time", "questionText": "What was the [intended/actual] [study treatment/dose] end time?", "simpleDatatype": "Char"}, {"_links": {"implements": {"href": "/mdr/cdash/1-0/classes/Interventions/fields/--DSTXT", "title": "Dose Description", "type": "Class Variable"}, "parentDomain": {"href": "/mdr/cdashig/2-0/domains/EX", "title": "Exposure", "type": "CDASH Domain"}, "parentProduct": {"href": "/mdr/cdashig/2-0", "title": "Clinical Data Acquisition Standards Harmonization Implementation Guide for Human Clinical Trials Version 2.0", "type": "Implementation Guide"}, "priorVersion": {"href": "/mdr/cdashig/1-1-1/domains/EX/fields/EXDSTXT", "type": "Data Collection Field"}, "rootItem": {"href": "/mdr/root/cdashig/domains/EX/fields/EXDSTXT", "title": "Version-agnostic anchor element for field EX.EXDSTXT", "type": "Root Data Element"}, "sdtmigDatasetMappingTargets": [{"href": "/mdr/sdtmig/3-2/datasets/EX/variables/EXDOSE", "title": "Dose", "type": "SDTM Dataset Variable"}, {"href": "/mdr/sdtmig/3-2/datasets/EX/variables/EXDOSTXT", "title": "Dose Description", "type": "SDTM Dataset Variable"}], "self": {"href": "/mdr/cdashig/2-0/domains/EX/fields/EXDSTXT", "title": "Exposure Dose Description", "type": "Data Collection Field"}}, "completionInstructions": "Record the dose or amount of study treatment that was administered to/taken by the subject in the period recorded; from the start date/time to the end date/time inclusive.", "core": "R/C", "definition": "Dose per administration.", "implementationNotes": "Dose or amount taken for single administration of study treatment or per constant dosing interval recorded. Dose must be collected if it cannot be determined via other methods (e.g., from diary data, drug accountability data, protocol etc.). The data collected in this dose text-format field should be mapped to either SDTMIG variable EXDOSE if numeric or EXDOSTXT if text.", "label": "Exposure Dose Description", "mappingInstructions": "This does not map directly to an SDTMIG variable. Numeric values map to EXDOSE in SDTM. Non-numeric values (e.g., 200-400) map to EXDOSTXT in SDTM.", "name": "EXDSTXT", "ordinal": "17", "prompt": "Dose", "questionText": "What was the dose per administration (of study treatment)?", "simpleDatatype": "Char"}, {"_links": {"codelist": [{"href": "/mdr/root/ct/sdtmct/codelists/C71620", "title": "Version-agnostic anchor resource for codelist C71620", "type": "Root Value Domain"}], "implements": {"href": "/mdr/cdash/1-0/classes/Interventions/fields/--DOSU", "title": "Dose Unit", "type": "Class Variable"}, "parentDomain": {"href": "/mdr/cdashig/2-0/domains/EX", "title": "Exposure", "type": "CDASH Domain"}, "parentProduct": {"href": "/mdr/cdashig/2-0", "title": "Clinical Data Acquisition Standards Harmonization Implementation Guide for Human Clinical Trials Version 2.0", "type": "Implementation Guide"}, "priorVersion": {"href": "/mdr/cdashig/1-1-1/domains/EX/fields/EXDOSU", "type": "Data Collection Field"}, "rootItem": {"href": "/mdr/root/cdashig/domains/EX/fields/EXDOSU", "title": "Version-agnostic anchor element for field EX.EXDOSU", "type": "Root Data Element"}, "sdtmigDatasetMappingTargets": [{"href": "/mdr/sdtmig/3-2/datasets/EX/variables/EXDOSU", "title": "Dose Units", "type": "SDTM Dataset Variable"}], "self": {"href": "/mdr/cdashig/2-0/domains/EX/fields/EXDOSU", "title": "Exposure Dose Unit", "type": "Data Collection Field"}}, "completionInstructions": "Record the unit of dose or amount taken per period recorded (e.g., ng, mg, mg/kg).", "core": "R/C", "definition": "The unit for intended dose per administration for EXDOSE, EXDOSTOT, or EXDOSTXT.", "implementationNotes": "Unit of dose or amount taken per constant dosing interval recorded. Dose unit must be collected if it cannot be determined via other methods (e.g., from protocol, randomization data). The unit should be pre-printed on the CRF or a field provided on the CRF to capture it. A CDASH Subset Controlled Terminology Codelist Name is available for general dose and volume units.", "label": "Exposure Dose Unit", "mappingInstructions": "Maps directly to the SDTMIG variable listed in the column with the heading \"SDTMIG Target\".", "name": "EXDOSU", "ordinal": "18", "prompt": "Unit", "questionText": "What was the unit for the dose?", "simpleDatatype": "Char"}, {"_links": {"codelist": [{"href": "/mdr/root/ct/sdtmct/codelists/C71113", "title": "Version-agnostic anchor resource for codelist C71113", "type": "Root Value Domain"}], "implements": {"href": "/mdr/cdash/1-0/classes/Interventions/fields/--DOSFRQ", "title": "Dosing Frequency per Interval", "type": "Class Variable"}, "parentDomain": {"href": "/mdr/cdashig/2-0/domains/EX", "title": "Exposure", "type": "CDASH Domain"}, "parentProduct": {"href": "/mdr/cdashig/2-0", "title": "Clinical Data Acquisition Standards Harmonization Implementation Guide for Human Clinical Trials Version 2.0", "type": "Implementation Guide"}, "priorVersion": {"href": "/mdr/cdashig/1-1-1/domains/EX/fields/EXDOSFRQ", "type": "Data Collection Field"}, "rootItem": {"href": "/mdr/root/cdashig/domains/EX/fields/EXDOSFRQ", "title": "Version-agnostic anchor element for field EX.EXDOSFRQ", "type": "Root Data Element"}, "sdtmigDatasetMappingTargets": [{"href": "/mdr/sdtmig/3-2/datasets/EX/variables/EXDOSFRQ", "title": "Dosing Frequency per Interval", "type": "SDTM Dataset Variable"}], "self": {"href": "/mdr/cdashig/2-0/domains/EX/fields/EXDOSFRQ", "title": "Exposure Dosing Frequency per Interval", "type": "Data Collection Field"}}, "completionInstructions": "Record the frequency the study treatment was administered for a defined period of time.", "core": "R/C", "definition": "The number of doses given/administered/taken during a specific interval.", "implementationNotes": "This may be collected if it cannot be determined from other sources or if there are multiple options. When possible, the options for dose/amount frequency are pre-printed on the CRF. When collected, the recommendation is to collect dosing information in separate fields (e.g., ECDOSE, ECDOSEU, ECDOSFRQ) for specific and consistent data collection and to enable programmatically utilizing these data.", "label": "Exposure Dosing Frequency per Interval", "mappingInstructions": "Maps directly to the SDTMIG variable listed in the column with the heading \"SDTMIG Target\".", "name": "EXDOSFRQ", "ordinal": "19", "prompt": "Frequency", "questionText": "What was the frequency of study treatment dosing?", "simpleDatatype": "Char"}, {"_links": {"codelist": [{"href": "/mdr/root/ct/sdtmct/codelists/C66729", "title": "Version-agnostic anchor resource for codelist C66729", "type": "Root Value Domain"}, {"href": "/mdr/root/ct/cdashct/codelists/C78425", "title": "Version-agnostic anchor resource for codelist C78425", "type": "Root Value Domain"}], "implements": {"href": "/mdr/cdash/1-0/classes/Interventions/fields/--ROUTE", "title": "Route of Administration", "type": "Class Variable"}, "parentDomain": {"href": "/mdr/cdashig/2-0/domains/EX", "title": "Exposure", "type": "CDASH Domain"}, "parentProduct": {"href": "/mdr/cdashig/2-0", "title": "Clinical Data Acquisition Standards Harmonization Implementation Guide for Human Clinical Trials Version 2.0", "type": "Implementation Guide"}, "priorVersion": {"href": "/mdr/cdashig/1-1-1/domains/EX/fields/EXROUTE", "type": "Data Collection Field"}, "rootItem": {"href": "/mdr/root/cdashig/domains/EX/fields/EXROUTE", "title": "Version-agnostic anchor element for field EX.EXROUTE", "type": "Root Data Element"}, "sdtmigDatasetMappingTargets": [{"href": "/mdr/sdtmig/3-2/datasets/EX/variables/EXROUTE", "title": "Route of Administration", "type": "SDTM Dataset Variable"}], "self": {"href": "/mdr/cdashig/2-0/domains/EX/fields/EXROUTE", "title": "Exposure Route of Administration", "type": "Data Collection Field"}}, "completionInstructions": "Record the route of administration (e.g., IV, ORAL, TRANSDERMAL) or enter the appropriate code from the code list.", "core": "R/C", "definition": "The route of administration of the study treatment.", "implementationNotes": "This may be collected if it cannot be determined via other methods (e.g., from protocol) or if there are multiple options.", "label": "Exposure Route of Administration", "mappingInstructions": "Maps directly to the SDTMIG variable listed in the column with the heading \"SDTMIG Target\".", "name": "EXROUTE", "ordinal": "20", "prompt": "Route", "questionText": "What was the route of administration (of the study treatment)?", "simpleDatatype": "Char"}, {"_links": {"implements": {"href": "/mdr/cdash/1-0/classes/Interventions/fields/--DOSRGM", "title": "Intended Dose Regimen", "type": "Class Variable"}, "parentDomain": {"href": "/mdr/cdashig/2-0/domains/EX", "title": "Exposure", "type": "CDASH Domain"}, "parentProduct": {"href": "/mdr/cdashig/2-0", "title": "Clinical Data Acquisition Standards Harmonization Implementation Guide for Human Clinical Trials Version 2.0", "type": "Implementation Guide"}, "rootItem": {"href": "/mdr/root/cdashig/domains/EX/fields/EXDOSRGM", "title": "Version-agnostic anchor element for field EX.EXDOSRGM", "type": "Root Data Element"}, "sdtmigDatasetMappingTargets": [{"href": "/mdr/sdtmig/3-2/datasets/EX/variables/EXDOSRGM", "title": "Intended Dose Regimen", "type": "SDTM Dataset Variable"}], "self": {"href": "/mdr/cdashig/2-0/domains/EX/fields/EXDOSRGM", "title": "Intended Dose Regimen", "type": "Data Collection Field"}}, "completionInstructions": "Record the regimen for the study medication.", "core": "O", "definition": "The text description of the (intended) schedule or regimen for the Intervention.", "implementationNotes": "The regimen information may further clarify the dose administration and dose frequency (e.g., TWO WEEKS ON, TWO WEEKS OFF). This may be pre-printed or collected. The sponsor may wish to create a codelist to collect this data consistently.", "label": "Intended Dose Regimen", "mappingInstructions": "Maps directly to the SDTMIG variable listed in the column with the heading \"SDTMIG Target\".", "name": "EXDOSRGM", "ordinal": "21", "prompt": "Intended Dose Regimen", "questionText": "What was the intended dose regimen (of the study treatment)?", "simpleDatatype": "Char"}, {"_links": {"codelist": [{"href": "/mdr/root/ct/sdtmct/codelists/C66742", "title": "Version-agnostic anchor resource for codelist C66742", "type": "Root Value Domain"}], "implements": {"href": "/mdr/cdash/1-0/classes/Interventions/fields/--DOSADJ", "title": "Dose Adjusted", "type": "Class Variable"}, "parentDomain": {"href": "/mdr/cdashig/2-0/domains/EX", "title": "Exposure", "type": "CDASH Domain"}, "parentProduct": {"href": "/mdr/cdashig/2-0", "title": "Clinical Data Acquisition Standards Harmonization Implementation Guide for Human Clinical Trials Version 2.0", "type": "Implementation Guide"}, "priorVersion": {"href": "/mdr/cdashig/1-1-1/domains/EX/fields/EXDOSADJ", "type": "Data Collection Field"}, "rootItem": {"href": "/mdr/root/cdashig/domains/EX/fields/EXDOSADJ", "title": "Version-agnostic anchor element for field EX.EXDOSADJ", "type": "Root Data Element"}, "self": {"href": "/mdr/cdashig/2-0/domains/EX/fields/EXDOSADJ", "title": "Dose Adjusted", "type": "Data Collection Field"}}, "completionInstructions": "Select either Yes or No to indicate whether there was a change in dosing.", "core": "O", "definition": "An indication whether or not the dose was adjusted.", "implementationNotes": "Typically, the intent/purpose of collecting this field is to help with data cleaning and monitoring as it provides a definitive response regarding any dose changes. It provides verification that the associate field on the CRF (EXADJ) was deliberately left blank. However, the sponsor may collect whether the dose was adjusted, without collecting the reason for the change.", "label": "Dose Adjusted", "mappingInstructions": "When EXADJ is collected, does not map to an SDTMIG variable. The SDTM Annotated CRF is annotated to indicate that this field is NOT SUBMITTED. When EXADJ is not collected, the sponsor may submit this variable as a SUPPQ.", "name": "EXDOSADJ", "ordinal": "22", "prompt": "(Dose) Adjusted", "questionText": "Was the dose adjusted?", "simpleDatatype": "Char"}, {"_links": {"implements": {"href": "/mdr/cdash/1-0/classes/Interventions/fields/--ADJ", "title": "Reason for Dose Adjustment", "type": "Class Variable"}, "parentDomain": {"href": "/mdr/cdashig/2-0/domains/EX", "title": "Exposure", "type": "CDASH Domain"}, "parentProduct": {"href": "/mdr/cdashig/2-0", "title": "Clinical Data Acquisition Standards Harmonization Implementation Guide for Human Clinical Trials Version 2.0", "type": "Implementation Guide"}, "priorVersion": {"href": "/mdr/cdashig/1-1-1/domains/EX/fields/EXADJ", "type": "Data Collection Field"}, "rootItem": {"href": "/mdr/root/cdashig/domains/EX/fields/EXADJ", "title": "Version-agnostic anchor element for field EX.EXADJ", "type": "Root Data Element"}, "sdtmigDatasetMappingTargets": [{"href": "/mdr/sdtmig/3-2/datasets/EX/variables/EXADJ", "title": "Reason for Dose Adjustment", "type": "SDTM Dataset Variable"}], "self": {"href": "/mdr/cdashig/2-0/domains/EX/fields/EXADJ", "title": "Reason for Dose Adjustment", "type": "Data Collection Field"}}, "completionInstructions": "If there was a change in dosing, record the reason for change.", "core": "O", "definition": "Description or explanation of why a dose of the study treatment is adjusted.", "implementationNotes": "Captures reason dose was changed or modified. The reason may be chosen from a sponsor defined list (for example, adverse event, insufficient response, etc.) or entered as free text. May be used for variations from protocol-specified doses, or changes from expected doses.", "label": "Reason for Dose Adjustment", "mappingInstructions": "Maps directly to the SDTMIG variable listed in the column with the heading \"SDTMIG Target\".", "name": "EXADJ", "ordinal": "23", "prompt": "Reason Adjusted", "questionText": "What was the reason the dose was adjusted (from planned)?", "simpleDatatype": "Char"}, {"_links": {"implements": {"href": "/mdr/cdash/1-0/classes/Interventions/fields/--ITRPD", "title": "Interruption Duration", "type": "Class Variable"}, "parentDomain": {"href": "/mdr/cdashig/2-0/domains/EX", "title": "Exposure", "type": "CDASH Domain"}, "parentProduct": {"href": "/mdr/cdashig/2-0", "title": "Clinical Data Acquisition Standards Harmonization Implementation Guide for Human Clinical Trials Version 2.0", "type": "Implementation Guide"}, "rootItem": {"href": "/mdr/root/cdashig/domains/EX/fields/EXITRPD", "title": "Version-agnostic anchor element for field EX.EXITRPD", "type": "Root Data Element"}, "sdtmigDatasetMappingTargets": [{"href": "/mdr/sdtmig/3-2/datasets/SUPPQUAL/variables/QVAL", "title": "Data Value", "type": "SDTM Dataset Variable"}], "self": {"href": "/mdr/cdashig/2-0/domains/EX/fields/EXITRPD", "title": "Exposure Interruption Duration", "type": "Data Collection Field"}}, "completionInstructions": "Record the duration of treatment interruption.", "core": "O", "definition": "The duration of the treatment interruption as collected.", "implementationNotes": "In some situations, the duration of the interruption may be calculated from the administration start and end times recorded elsewhere in the CRF.", "label": "Exposure Interruption Duration", "mappingInstructions": "This does not map directly to an SDTMIG variable. This information could be submitted in a SUPPEX dataset as the value of SUPPEX.QVAL where SUPPEX.QNAM = \"EXITRP\" and SUPPEX.QLABEL=\"Collected Interruption Duration\". Concatenate the collected treatment interruption duration and the duration unit components and create EXINTRP using ISO 8601 Period format. Refer to the current SDTM and SDTMIG for instructions on placement of non-standard variables in SDTM domains.", "name": "EXITRPD", "ordinal": "24", "prompt": "Interruption Duration", "questionText": "If the dose was interrupted, how long was the interruption?", "simpleDatatype": "Char"}, {"_links": {"codelist": [{"href": "/mdr/root/ct/sdtmct/codelists/C71620", "title": "Version-agnostic anchor resource for codelist C71620", "type": "Root Value Domain"}, {"href": "/mdr/root/ct/cdashct/codelists/C78427", "title": "Version-agnostic anchor resource for codelist C78427", "type": "Root Value Domain"}], "implements": {"href": "/mdr/cdash/1-0/classes/Interventions/fields/--ITRPDU", "title": "Interruption Duration Unit", "type": "Class Variable"}, "parentDomain": {"href": "/mdr/cdashig/2-0/domains/EX", "title": "Exposure", "type": "CDASH Domain"}, "parentProduct": {"href": "/mdr/cdashig/2-0", "title": "Clinical Data Acquisition Standards Harmonization Implementation Guide for Human Clinical Trials Version 2.0", "type": "Implementation Guide"}, "rootItem": {"href": "/mdr/root/cdashig/domains/EX/fields/EXITRPDU", "title": "Version-agnostic an