{"_links": {"model": {"href": "/mdr/cdash/1-1", "title": "Clinical Data Acquisition Standards Harmonization Model Version 1.1", "type": "Foundational Model"}, "priorVersion": {"href": "/mdr/cdashig/2-0", "title": "Clinical Data Acquisition Standards Harmonization Implementation Guide for Human Clinical Trials Version 2.0", "type": "Implementation Guide"}, "self": {"href": "/mdr/cdashig/2-1", "title": "Clinical Data Acquisition Standards Harmonization Implementation Guide for Human Clinical Trials Version 2.1", "type": "Implementation Guide"}}, "classes": [{"_links": {"modelClass": {"href": "/mdr/cdash/1-1/classes/SpecialPurpose", "title": "Special-Purpose", "type": "Class"}, "parentProduct": {"href": "/mdr/cdashig/2-1", "title": "Clinical Data Acquisition Standards Harmonization Implementation Guide for Human Clinical Trials Version 2.1", "type": "Implementation Guide"}, "priorVersion": {"href": "/mdr/cdashig/2-0/classes/SpecialPurpose", "title": "Special Purpose Domains", "type": "Class"}, "self": {"href": "/mdr/cdashig/2-1/classes/SpecialPurpose", "title": "Special-Purpose", "type": "Class"}}, "description": "The Study Data Tabulation Model Implementation Guide (SDTMIG) includes 3 types of special-purpose datasets:\n\n    Domain datasets-Demographics (DM), Comments (CO), Subject Elements (SE), and Subject Visits (SV)-which contain subject-level data\n    Trial Design Model (TDM) datasets, which contain trial-level data\n    Relationship datasets\n\nThese datasets are described in SDTMIG Section 2.3. CDASH does not currently contain information on Trial Design Model or Relationship datasets. Because CDASH standards are for collection of subject-level data, the collection of Trial Design domains is out of the scope for CDASH. CDASHIG contains information on these Special-Purpose Domains: Comments (CO) and Demographics (DM). (Source: CDASHIG v2.1, Section 7)", "domains": [{"_links": {"parentClass": {"href": "/mdr/cdashig/2-1/classes/SpecialPurpose", "title": "Special-Purpose", "type": "Class"}, "parentProduct": {"href": "/mdr/cdashig/2-1", "title": "Clinical Data Acquisition Standards Harmonization Implementation Guide for Human Clinical Trials Version 2.1", "type": "Implementation Guide"}, "priorVersion": {"href": "/mdr/cdashig/2-0/domains/CO", "title": "Comments", "type": "CDASH Domain"}, "self": {"href": "/mdr/cdashig/2-1/domains/CO", "title": "Comments", "type": "CDASH Domain"}}, "fields": [{"_links": {"implements": {"href": "/mdr/cdash/1-1/classes/Identifiers/fields/STUDYID", "title": "Study Identifier", "type": "Class Variable"}, "parentDomain": {"href": "/mdr/cdashig/2-1/domains/CO", "title": "Comments", "type": "CDASH Domain"}, "parentProduct": {"href": "/mdr/cdashig/2-1", "title": "Clinical Data Acquisition Standards Harmonization Implementation Guide for Human Clinical Trials Version 2.1", "type": "Implementation Guide"}, "priorVersion": {"href": "/mdr/cdashig/2-0/domains/CO/fields/STUDYID", "title": "Study Identifier", "type": "Data Collection Field"}, "rootItem": {"href": "/mdr/root/cdashig/domains/CO/fields/STUDYID", "title": "Version-agnostic anchor element for field CO.STUDYID", "type": "Root Data Element"}, "sdtmigDatasetMappingTargets": [{"href": "/mdr/sdtmig/3-2/datasets/CO/variables/STUDYID", "title": "Study Identifier", "type": "SDTM Dataset Variable"}], "self": {"href": "/mdr/cdashig/2-1/domains/CO/fields/STUDYID", "title": "Study Identifier", "type": "Data Collection Field"}}, "core": "HR", "definition": "A unique identifier for a study.", "implementationNotes": "While this field is not typically captured on a CRF, it should be displayed clearly on the CRF and/or the EDC system. This field can be included into the database or populated during SDTM-based dataset creation before submission.", "label": "Study Identifier", "mappingInstructions": "Maps directly to the SDTMIG variable listed in the column with the heading SDTMIG Target.", "name": "STUDYID", "ordinal": "1", "prompt": "[Protocol/Study]", "questionText": "What is the study identifier?", "simpleDatatype": "Char"}, {"_links": {"implements": {"href": "/mdr/cdash/1-1/classes/Identifiers/fields/SITEID", "title": "Study Site Identifier", "type": "Class Variable"}, "parentDomain": {"href": "/mdr/cdashig/2-1/domains/CO", "title": "Comments", "type": "CDASH Domain"}, "parentProduct": {"href": "/mdr/cdashig/2-1", "title": "Clinical Data Acquisition Standards Harmonization Implementation Guide for Human Clinical Trials Version 2.1", "type": "Implementation Guide"}, "priorVersion": {"href": "/mdr/cdashig/2-0/domains/CO/fields/SITEID", "title": "Study Site Identifier", "type": "Data Collection Field"}, "rootItem": {"href": "/mdr/root/cdashig/domains/CO/fields/SITEID", "title": "Version-agnostic anchor element for field CO.SITEID", "type": "Root Data Element"}, "sdtmigDatasetMappingTargets": [{"href": "/mdr/sdtmig/3-2/datasets/DM/variables/SITEID", "title": "Study Site Identifier", "type": "SDTM Dataset Variable"}], "self": {"href": "/mdr/cdashig/2-1/domains/CO/fields/SITEID", "title": "Study Site Identifier", "type": "Data Collection Field"}}, "core": "HR", "definition": "A unique identifier for a site within a study.", "implementationNotes": "Paper: This is typically preprinted in the header of each CRF page for single site studies. For studies with multiple sites, this field may be left blank so that the number can be recorded by the site, or it may be preprinted for the CRFs that are shipped to each site. EDC: This should be prepopulated.", "label": "Study Site Identifier", "mappingInstructions": "Maps directly to the SDTMIG variable listed in the column with the heading SDTMIG Target.", "name": "SITEID", "ordinal": "2", "prompt": "Site (Identifier)", "questionText": "What is the site identifier?", "simpleDatatype": "Char"}, {"_links": {"implements": {"href": "/mdr/cdash/1-1/classes/Identifiers/fields/SUBJID", "title": "Subject Identifier for the Study", "type": "Class Variable"}, "parentDomain": {"href": "/mdr/cdashig/2-1/domains/CO", "title": "Comments", "type": "CDASH Domain"}, "parentProduct": {"href": "/mdr/cdashig/2-1", "title": "Clinical Data Acquisition Standards Harmonization Implementation Guide for Human Clinical Trials Version 2.1", "type": "Implementation Guide"}, "priorVersion": {"href": "/mdr/cdashig/2-0/domains/CO/fields/SUBJID", "title": "Subject Identifier for the Study", "type": "Data Collection Field"}, "rootItem": {"href": "/mdr/root/cdashig/domains/CO/fields/SUBJID", "title": "Version-agnostic anchor element for field CO.SUBJID", "type": "Root Data Element"}, "sdtmigDatasetMappingTargets": [{"href": "/mdr/sdtmig/3-2/datasets/DM/variables/SUBJID", "title": "Subject Identifier for the Study", "type": "SDTM Dataset Variable"}], "self": {"href": "/mdr/cdashig/2-1/domains/CO/fields/SUBJID", "title": "Subject Identifier for the Study", "type": "Data Collection Field"}}, "completionInstructions": "Record the identifier for the subject.", "core": "HR", "definition": "A unique subject identifier within a site and a study.", "implementationNotes": "Paper: This is typically recorded in the header of each CRF page. EDC: The subject identifiers may be system generated. This CDASH variable is typically collected in all CDASH domains. However, this CDASH variable is populated only in the SDTMIG DM domain. For more information, refer to the SDTM Implementation Guide.", "label": "Subject Identifier for the Study", "mappingInstructions": "Maps directly to the SDTMIG variable listed in the column with the heading SDTMIG Target.", "name": "SUBJID", "ordinal": "3", "prompt": "[Subject/Participant] (Identifier)", "questionText": "What [is/was] the (study) [subject/participant] identifier?", "simpleDatatype": "Char"}, {"_links": {"implements": {"href": "/mdr/cdash/1-1/domains/CO/fields/COVAL", "title": "Comment", "type": "Data Collection Field"}, "parentDomain": {"href": "/mdr/cdashig/2-1/domains/CO", "title": "Comments", "type": "CDASH Domain"}, "parentProduct": {"href": "/mdr/cdashig/2-1", "title": "Clinical Data Acquisition Standards Harmonization Implementation Guide for Human Clinical Trials Version 2.1", "type": "Implementation Guide"}, "priorVersion": {"href": "/mdr/cdashig/2-0/domains/CO/fields/COVAL", "title": "Comment", "type": "Data Collection Field"}, "rootItem": {"href": "/mdr/root/cdashig/domains/CO/fields/COVAL", "title": "Version-agnostic anchor element for field CO.COVAL", "type": "Root Data Element"}, "sdtmigDatasetMappingTargets": [{"href": "/mdr/sdtmig/3-2/datasets/CO/variables/COVAL", "title": "Comment", "type": "SDTM Dataset Variable"}], "self": {"href": "/mdr/cdashig/2-1/domains/CO/fields/COVAL", "title": "Comment", "type": "Data Collection Field"}}, "completionInstructions": "[protocol specific]", "core": "O", "definition": "A free text comment.", "implementationNotes": "If an additional free-text field is needed to provide more information about a particular record, use the COVAL variable to collect the free text, and associate the free text (comment) with the original record using RDOMAIN, IDVAR, IDVARVAL.", "label": "Comment", "mappingInstructions": "Maps directly to the SDTMIG variable listed in the column with the heading SDTMIG Target. RDOMAIN contains the domain to which is related to the comment.", "name": "COVAL", "ordinal": "4", "prompt": "[abbreviated version of the protocol-specified targeted question]", "questionText": "[protocol-specified targeted question]", "simpleDatatype": "Char"}], "label": "Comments", "name": "CO", "ordinal": "4"}, {"_links": {"parentClass": {"href": "/mdr/cdashig/2-1/classes/SpecialPurpose", "title": "Special-Purpose", "type": "Class"}, "parentProduct": {"href": "/mdr/cdashig/2-1", "title": "Clinical Data Acquisition Standards Harmonization Implementation Guide for Human Clinical Trials Version 2.1", "type": "Implementation Guide"}, "priorVersion": {"href": "/mdr/cdashig/2-0/domains/DM", "title": "Demographics", "type": "CDASH Domain"}, "self": {"href": "/mdr/cdashig/2-1/domains/DM", "title": "Demographics", "type": "CDASH Domain"}}, "fields": [{"_links": {"implements": {"href": "/mdr/cdash/1-1/classes/Identifiers/fields/STUDYID", "title": "Study Identifier", "type": "Class Variable"}, "parentDomain": {"href": "/mdr/cdashig/2-1/domains/DM", "title": "Demographics", "type": "CDASH Domain"}, "parentProduct": {"href": "/mdr/cdashig/2-1", "title": "Clinical Data Acquisition Standards Harmonization Implementation Guide for Human Clinical Trials Version 2.1", "type": "Implementation Guide"}, "priorVersion": {"href": "/mdr/cdashig/2-0/domains/DM/fields/STUDYID", "title": "Study Identifier", "type": "Data Collection Field"}, "rootItem": {"href": "/mdr/root/cdashig/domains/DM/fields/STUDYID", "title": "Version-agnostic anchor element for field DM.STUDYID", "type": "Root Data Element"}, "sdtmigDatasetMappingTargets": [{"href": "/mdr/sdtmig/3-2/datasets/DM/variables/STUDYID", "title": "Study Identifier", "type": "SDTM Dataset Variable"}], "self": {"href": "/mdr/cdashig/2-1/domains/DM/fields/STUDYID", "title": "Study Identifier", "type": "Data Collection Field"}}, "core": "HR", "definition": "A unique identifier for a study.", "implementationNotes": "While this field is not typically captured on a CRF, it should be displayed clearly on the CRF and/or the EDC system. This field can be included into the database or populated during SDTM-based dataset creation before submission.", "label": "Study Identifier", "mappingInstructions": "Maps directly to the SDTMIG variable listed in the column with the heading SDTMIG Target.", "name": "STUDYID", "ordinal": "1", "prompt": "[Protocol/Study]", "questionText": "What is the study identifier?", "simpleDatatype": "Char"}, {"_links": {"implements": {"href": "/mdr/cdash/1-1/domains/DM/fields/SITEID", "title": "Study Site Identifier", "type": "Data Collection Field"}, "parentDomain": {"href": "/mdr/cdashig/2-1/domains/DM", "title": "Demographics", "type": "CDASH Domain"}, "parentProduct": {"href": "/mdr/cdashig/2-1", "title": "Clinical Data Acquisition Standards Harmonization Implementation Guide for Human Clinical Trials Version 2.1", "type": "Implementation Guide"}, "priorVersion": {"href": "/mdr/cdashig/2-0/domains/DM/fields/SITEID", "title": "Study Site Identifier", "type": "Data Collection Field"}, "rootItem": {"href": "/mdr/root/cdashig/domains/DM/fields/SITEID", "title": "Version-agnostic anchor element for field DM.SITEID", "type": "Root Data Element"}, "sdtmigDatasetMappingTargets": [{"href": "/mdr/sdtmig/3-2/datasets/DM/variables/SITEID", "title": "Study Site Identifier", "type": "SDTM Dataset Variable"}], "self": {"href": "/mdr/cdashig/2-1/domains/DM/fields/SITEID", "title": "Study Site Identifier", "type": "Data Collection Field"}}, "core": "HR", "definition": "A unique identifier for a site within a study.", "implementationNotes": "Paper: This is typically preprinted in the header of each CRF page for single site studies. For studies with multiple sites, this field may be left blank so that the number can be recorded by the site, or it may be preprinted for the CRFs that are shipped to each site. EDC: This should be prepopulated.", "label": "Study Site Identifier", "mappingInstructions": "Maps directly to the SDTMIG variable listed in the column with the heading SDTMIG Target.", "name": "SITEID", "ordinal": "2", "prompt": "Site (Identifier)", "questionText": "What is the site identifier?", "simpleDatatype": "Char"}, {"_links": {"implements": {"href": "/mdr/cdash/1-1/classes/Identifiers/fields/SUBJID", "title": "Subject Identifier for the Study", "type": "Class Variable"}, "parentDomain": {"href": "/mdr/cdashig/2-1/domains/DM", "title": "Demographics", "type": "CDASH Domain"}, "parentProduct": {"href": "/mdr/cdashig/2-1", "title": "Clinical Data Acquisition Standards Harmonization Implementation Guide for Human Clinical Trials Version 2.1", "type": "Implementation Guide"}, "priorVersion": {"href": "/mdr/cdashig/2-0/domains/DM/fields/SUBJID", "title": "Subject Identifier for the Study", "type": "Data Collection Field"}, "rootItem": {"href": "/mdr/root/cdashig/domains/DM/fields/SUBJID", "title": "Version-agnostic anchor element for field DM.SUBJID", "type": "Root Data Element"}, "sdtmigDatasetMappingTargets": [{"href": "/mdr/sdtmig/3-2/datasets/DM/variables/SUBJID", "title": "Subject Identifier for the Study", "type": "SDTM Dataset Variable"}], "self": {"href": "/mdr/cdashig/2-1/domains/DM/fields/SUBJID", "title": "Subject Identifier for the Study", "type": "Data Collection Field"}}, "completionInstructions": "Record the identifier for the subject.", "core": "HR", "definition": "A unique subject identifier within a site and a study.", "implementationNotes": "Paper: This is typically recorded in the header of each CRF page. EDC: The subject identifiers may be system generated. This CDASH variable is typically collected in all CDASH domains. However, this CDASH variable is populated only in the SDTMIG DM domain. For more information, refer to the SDTM Implementation Guide.", "label": "Subject Identifier for the Study", "mappingInstructions": "Maps directly to the SDTMIG variable listed in the column with the heading SDTMIG Target.", "name": "SUBJID", "ordinal": "3", "prompt": "[Subject/Participant] (Identifier)", "questionText": "What [is/was] the (study) [subject/participant] identifier?", "simpleDatatype": "Char"}, {"_links": {"implements": {"href": "/mdr/cdash/1-1/domains/DM/fields/BRTHDAT", "title": "Birth Date", "type": "Data Collection Field"}, "parentDomain": {"href": "/mdr/cdashig/2-1/domains/DM", "title": "Demographics", "type": "CDASH Domain"}, "parentProduct": {"href": "/mdr/cdashig/2-1", "title": "Clinical Data Acquisition Standards Harmonization Implementation Guide for Human Clinical Trials Version 2.1", "type": "Implementation Guide"}, "priorVersion": {"href": "/mdr/cdashig/2-0/domains/DM/fields/BRTHDAT", "title": "Date of Birth", "type": "Data Collection Field"}, "rootItem": {"href": "/mdr/root/cdashig/domains/DM/fields/BRTHDAT", "title": "Version-agnostic anchor element for field DM.BRTHDAT", "type": "Root Data Element"}, "sdtmigDatasetMappingTargets": [{"href": "/mdr/sdtmig/3-2/datasets/DM/variables/BRTHDTC", "title": "Date/Time of Birth", "type": "SDTM Dataset Variable"}], "self": {"href": "/mdr/cdashig/2-1/domains/DM/fields/BRTHDAT", "title": "Birth Date", "type": "Data Collection Field"}}, "completionInstructions": "Record the date of birth to the level of precision known (e.g., day/month/year, year, month/year, etc.) in this format (DD-MON-YYYY).", "core": "R/C", "definition": "A subject's date of birth (with or without the time of birth). The complete Date of Birth is made from the temporal components of Birth Year, Birth Month, Birth Day and Birth Time.", "implementationNotes": "BRTHDAT is the collected field used for recording the full birth date. The sponsor may choose to database the date of birth as a single variable (BRTHDAT), or as separate variables for each component of the date/time (BRTHYY, BRTHMO, BRTHDD, BRTHTIM). The sponsor may choose a method based on database considerations, or for regulatory reasons. It is expected that what is collected for BRTHDAT (complete date or whichever components are collected) is reported in the SDTMIG variable BRTHDTC in the ISO 8601 format. If data are collected in a manner resulting in a reduced precision level, then the AGE (SDTM expected variable), if not collected on the CRF, should be derived using a documented algorithm that describes how the age was determined and/or imputed for those birth dates collected with reduced precision.", "label": "Birth Date", "mappingInstructions": "This does not map directly to an SDTMIG variable. For the SDTM submission dataset, concatenate all collected CDASH DATE and TIME components and populate the SDTMIG variable BRTHDTC in ISO 8601 format.", "name": "BRTHDAT", "ordinal": "4", "prompt": "Birth Date", "questionText": "What is the subject's date of birth?", "simpleDatatype": "Char"}, {"_links": {"implements": {"href": "/mdr/cdash/1-1/domains/DM/fields/BRTHDD", "title": "Birth Day", "type": "Data Collection Field"}, "parentDomain": {"href": "/mdr/cdashig/2-1/domains/DM", "title": "Demographics", "type": "CDASH Domain"}, "parentProduct": {"href": "/mdr/cdashig/2-1", "title": "Clinical Data Acquisition Standards Harmonization Implementation Guide for Human Clinical Trials Version 2.1", "type": "Implementation Guide"}, "priorVersion": {"href": "/mdr/cdashig/2-0/domains/DM/fields/BRTHDD", "title": "Day of Birth", "type": "Data Collection Field"}, "rootItem": {"href": "/mdr/root/cdashig/domains/DM/fields/BRTHDD", "title": "Version-agnostic anchor element for field DM.BRTHDD", "type": "Root Data Element"}, "sdtmigDatasetMappingTargets": [{"href": "/mdr/sdtmig/3-2/datasets/DM/variables/BRTHDTC", "title": "Date/Time of Birth", "type": "SDTM Dataset Variable"}], "self": {"href": "/mdr/cdashig/2-1/domains/DM/fields/BRTHDD", "title": "Birth Day", "type": "Data Collection Field"}}, "completionInstructions": "Record the subject's day of birth (e.g., 01 or 31).", "core": "R/C", "definition": "Day of birth of the subject in an unambiguous date format (e.g., DD).", "implementationNotes": "Day of Birth is the collected variable used for recording the day component of the Date of Birth. The sponsor may choose to database the date of birth as a single variable (BRTHDAT), or as separate variables for each component of the date/time (BRTHYY, BRTHMO, BRTHDD, BRTHTIM). The sponsor may choose a method based on database considerations, or for regulatory reasons. It is expected that what is collected for BRTHDAT (complete date or whichever components are collected) is reported in the SDTMIG variable BRTHDTC in the ISO 8601 format. If data are collected in a manner resulting in a reduced precision level, then the AGE (SDTM expected variable), if not collected on the CRF, should be derived using a documented algorithm that describes how the age was derived and/or imputed for those birth dates collected with reduced precision.", "label": "Birth Day", "mappingInstructions": "This does not map directly to an SDTMIG variable. For the SDTM submission dataset, concatenate all collected CDASH DATE and TIME components and populate the SDTMIG variable BRTHDTC in ISO 8601 format.", "name": "BRTHDD", "ordinal": "5", "prompt": "Birth Day", "questionText": "What is the subject's day of birth?", "simpleDatatype": "Char"}, {"_links": {"implements": {"href": "/mdr/cdash/1-1/domains/DM/fields/BRTHMO", "title": "Birth Month", "type": "Data Collection Field"}, "parentDomain": {"href": "/mdr/cdashig/2-1/domains/DM", "title": "Demographics", "type": "CDASH Domain"}, "parentProduct": {"href": "/mdr/cdashig/2-1", "title": "Clinical Data Acquisition Standards Harmonization Implementation Guide for Human Clinical Trials Version 2.1", "type": "Implementation Guide"}, "priorVersion": {"href": "/mdr/cdashig/2-0/domains/DM/fields/BRTHMO", "title": "Month of Birth", "type": "Data Collection Field"}, "rootItem": {"href": "/mdr/root/cdashig/domains/DM/fields/BRTHMO", "title": "Version-agnostic anchor element for field DM.BRTHMO", "type": "Root Data Element"}, "sdtmigDatasetMappingTargets": [{"href": "/mdr/sdtmig/3-2/datasets/DM/variables/BRTHDTC", "title": "Date/Time of Birth", "type": "SDTM Dataset Variable"}], "self": {"href": "/mdr/cdashig/2-1/domains/DM/fields/BRTHMO", "title": "Birth Month", "type": "Data Collection Field"}}, "completionInstructions": "Record the subject's month of birth [e.g., (in local language short month format) (JAN-DEC) or (ENE-DIE) or (JAN-DEZ), etc.].", "core": "R/C", "definition": "Month of birth of the subject in an unambiguous date format (e.g., MMM).", "implementationNotes": "Month of Birth is the collected variable used for recording the month component of the Date of Birth. The sponsor may choose to database the date of birth as a single variable (BRTHDAT), or as separate variables for each component of the date/time (BRTHYY, BRTHMO, BRTHDD, BRTHTIM). The sponsor may choose a method based on database considerations, or for regulatory reasons. It is expected that what is collected for BRTHDAT (complete date or whichever components are collected) is reported in the SDTMIG variable BRTHDTC in the ISO 8601 format. If data are collected in a manner resulting in a reduced precision level, then the AGE (SDTM expected variable), if not collected on the CRF, should be derived using a documented algorithm that describes how the age was derived and/or imputed for those birth dates collected with reduced precision.", "label": "Birth Month", "mappingInstructions": "This does not map directly to an SDTMIG variable. For the SDTM submission dataset, concatenate all collected CDASH DATE and TIME components and populate the SDTMIG variable BRTHDTC in ISO 8601 format.", "name": "BRTHMO", "ordinal": "6", "prompt": "Birth Month", "questionText": "What is the subject's month of birth?", "simpleDatatype": "Char"}, {"_links": {"implements": {"href": "/mdr/cdash/1-1/domains/DM/fields/BRTHYY", "title": "Birth Year", "type": "Data Collection Field"}, "parentDomain": {"href": "/mdr/cdashig/2-1/domains/DM", "title": "Demographics", "type": "CDASH Domain"}, "parentProduct": {"href": "/mdr/cdashig/2-1", "title": "Clinical Data Acquisition Standards Harmonization Implementation Guide for Human Clinical Trials Version 2.1", "type": "Implementation Guide"}, "priorVersion": {"href": "/mdr/cdashig/2-0/domains/DM/fields/BRTHYY", "title": "Year of Birth", "type": "Data Collection Field"}, "rootItem": {"href": "/mdr/root/cdashig/domains/DM/fields/BRTHYY", "title": "Version-agnostic anchor element for field DM.BRTHYY", "type": "Root Data Element"}, "sdtmigDatasetMappingTargets": [{"href": "/mdr/sdtmig/3-2/datasets/DM/variables/BRTHDTC", "title": "Date/Time of Birth", "type": "SDTM Dataset Variable"}], "self": {"href": "/mdr/cdashig/2-1/domains/DM/fields/BRTHYY", "title": "Birth Year", "type": "Data Collection Field"}}, "completionInstructions": "Record the subject's year of birth (e.g., YYYY, a four-digit year).", "core": "R/C", "definition": "The year of birth of the subject in an unambiguous date format (e.g., YYYY).", "implementationNotes": "Year of Birth is the collected variable used for recording the year component of the Date of Birth. The sponsor may choose to database the date of birth as a single variable (BRTHDAT), or as separate variables for each component of the date/time (BRTHYY, BRTHMO, BRTHDD, BRTHTIM). The sponsor may choose a method based on database considerations, or for regulatory reasons. It is expected that what is collected for BRTHDAT (complete date or whichever components are collected) is reported in the SDTMIG variable BRTHDTC in the ISO 8601 format. If data are collected in a manner resulting in a reduced precision level, then the AGE (SDTM expected variable), if not collected on the CRF, should be derived using a documented algorithm that describes how the age was derived and/or imputed for those birth dates collected with reduced precision.", "label": "Birth Year", "mappingInstructions": "This does not map directly to an SDTMIG variable. For the SDTM submission dataset, concatenate all collected CDASH DATE and TIME components and populate the SDTMIG variable BRTHDTC in ISO 8601 format.", "name": "BRTHYY", "ordinal": "7", "prompt": "Birth Year", "questionText": "What is the subject's year of birth?", "simpleDatatype": "Char"}, {"_links": {"implements": {"href": "/mdr/cdash/1-1/domains/DM/fields/BRTHTIM", "title": "Birth Time", "type": "Data Collection Field"}, "parentDomain": {"href": "/mdr/cdashig/2-1/domains/DM", "title": "Demographics", "type": "CDASH Domain"}, "parentProduct": {"href": "/mdr/cdashig/2-1", "title": "Clinical Data Acquisition Standards Harmonization Implementation Guide for Human Clinical Trials Version 2.1", "type": "Implementation Guide"}, "priorVersion": {"href": "/mdr/cdashig/2-0/domains/DM/fields/BRTHTIM", "title": "Time of Birth", "type": "Data Collection Field"}, "rootItem": {"href": "/mdr/root/cdashig/domains/DM/fields/BRTHTIM", "title": "Version-agnostic anchor element for field DM.BRTHTIM", "type": "Root Data Element"}, "sdtmigDatasetMappingTargets": [{"href": "/mdr/sdtmig/3-2/datasets/DM/variables/BRTHDTC", "title": "Date/Time of Birth", "type": "SDTM Dataset Variable"}], "self": {"href": "/mdr/cdashig/2-1/domains/DM/fields/BRTHTIM", "title": "Birth Time", "type": "Data Collection Field"}}, "completionInstructions": "Record the time of birth (as completely as possible).", "core": "O", "definition": "The time of birth of the subject in an unambiguous time format (e.g., hh:mm)", "implementationNotes": "The level of detail collected by Time of Birth may be necessary for analysis for some pediatric, natal or neonatal studies. The sponsor may choose to database the date of birth as a single variable (BRTHDAT), or as separate variables for each component of the date/time (BRTHYY, BRTHMO, BRTHDD, BRTHTIM). The sponsor may choose a method based on database considerations, or for regulatory reasons. It is expected that what is collected for BRTHDAT (complete date or whichever components are collected) is reported in the SDTMIG variable BRTHDTC in the ISO 8601 format. If data are collected in a manner resulting in a reduced precision level, then the AGE (SDTMIG expected variable), if not collected on the CRF, should be derived using a documented algorithm that describes how the age was derived and/or imputed for those birth dates collected with reduced precision.", "label": "Birth Time", "mappingInstructions": "This does not map directly to an SDTMIG variable. For the SDTM submission dataset, concatenate all collected CDASH DATE and TIME components and populate the SDTMIG variable BRTHDTC in ISO 8601 format.", "name": "BRTHTIM", "ordinal": "8", "prompt": "Birth Time", "questionText": "What is the subject's time of birth?", "simpleDatatype": "Char"}, {"_links": {"implements": {"href": "/mdr/cdash/1-1/domains/DM/fields/AGE", "title": "Age", "type": "Data Collection Field"}, "parentDomain": {"href": "/mdr/cdashig/2-1/domains/DM", "title": "Demographics", "type": "CDASH Domain"}, "parentProduct": {"href": "/mdr/cdashig/2-1", "title": "Clinical Data Acquisition Standards Harmonization Implementation Guide for Human Clinical Trials Version 2.1", "type": "Implementation Guide"}, "priorVersion": {"href": "/mdr/cdashig/2-0/domains/DM/fields/AGE", "title": "Age", "type": "Data Collection Field"}, "rootItem": {"href": "/mdr/root/cdashig/domains/DM/fields/AGE", "title": "Version-agnostic anchor element for field DM.AGE", "type": "Root Data Element"}, "sdtmigDatasetMappingTargets": [{"href": "/mdr/sdtmig/3-2/datasets/DM/variables/AGE", "title": "Age", "type": "SDTM Dataset Variable"}], "self": {"href": "/mdr/cdashig/2-1/domains/DM/fields/AGE", "title": "Age", "type": "Data Collection Field"}}, "completionInstructions": "Record age of the subject.", "core": "O", "definition": "The age of the subject expressed in AGEU.", "implementationNotes": "If Age is collected, it should be collected as a number and, to be correctly interpreted, the age value should be associated to a variable for the Age Unit. It may be necessary to know when the age was collected as an age may need to be recalculated for analysis, such as deriving age at a reference start time (RFSTDTC for SDTM). BRTHDTC may not be available in all cases (due to subject privacy concerns).If AGE is collected, then it is recommended that the date of collection also be recorded, either separately or by association to the date of the visit.", "label": "Age", "mappingInstructions": "Maps directly to the SDTMIG variable listed in the column with the heading SDTMIG Target.", "name": "AGE", "ordinal": "9", "prompt": "Age", "questionText": "What is the subject's age?", "simpleDatatype": "Num"}, {"_links": {"codelist": [{"href": "/mdr/root/ct/sdtmct/codelists/C66781", "title": "Version-agnostic anchor resource for codelist C66781", "type": "Root Value Domain"}], "implements": {"href": "/mdr/cdash/1-1/domains/DM/fields/AGEU", "title": "Age Units", "type": "Data Collection Field"}, "parentDomain": {"href": "/mdr/cdashig/2-1/domains/DM", "title": "Demographics", "type": "CDASH Domain"}, "parentProduct": {"href": "/mdr/cdashig/2-1", "title": "Clinical Data Acquisition Standards Harmonization Implementation Guide for Human Clinical Trials Version 2.1", "type": "Implementation Guide"}, "priorVersion": {"href": "/mdr/cdashig/2-0/domains/DM/fields/AGEU", "title": "Age Units", "type": "Data Collection Field"}, "rootItem": {"href": "/mdr/root/cdashig/domains/DM/fields/AGEU", "title": "Version-agnostic anchor element for field DM.AGEU", "type": "Root Data Element"}, "sdtmigDatasetMappingTargets": [{"href": "/mdr/sdtmig/3-2/datasets/DM/variables/AGEU", "title": "Age Units", "type": "SDTM Dataset Variable"}], "self": {"href": "/mdr/cdashig/2-1/domains/DM/fields/AGEU", "title": "Age Units", "type": "Data Collection Field"}}, "completionInstructions": "Record the appropriate age unit (e.g., YEARS, MONTHS, WEEKS, etc.).", "core": "O", "definition": "Those units of time that are routinely used to express the age of a person.", "implementationNotes": "If Age is captured on the CRF, the age unit must be known to make the age value meaningful. The age unit might be collected on the CRF, in those cases where the protocol allows for any age group, or it may be preprinted on the CRF (typically with the unit of \"years\").", "label": "Age Units", "mappingInstructions": "Maps directly to the SDTMIG variable listed in the column with the heading SDTMIG Target.", "name": "AGEU", "ordinal": "10", "prompt": "Age Unit", "questionText": "What is the age unit used?", "simpleDatatype": "Char"}, {"_links": {"implements": {"href": "/mdr/cdash/1-1/classes/Timing/fields/--DAT", "title": "Collection Date", "type": "Class Variable"}, "parentDomain": {"href": "/mdr/cdashig/2-1/domains/DM", "title": "Demographics", "type": "CDASH Domain"}, "parentProduct": {"href": "/mdr/cdashig/2-1", "title": "Clinical Data Acquisition Standards Harmonization Implementation Guide for Human Clinical Trials Version 2.1", "type": "Implementation Guide"}, "priorVersion": {"href": "/mdr/cdashig/2-0/domains/DM/fields/DMDAT", "title": "Date of Demographics Collection", "type": "Data Collection Field"}, "rootItem": {"href": "/mdr/root/cdashig/domains/DM/fields/DMDAT", "title": "Version-agnostic anchor element for field DM.DMDAT", "type": "Root Data Element"}, "sdtmigDatasetMappingTargets": [{"href": "/mdr/sdtmig/3-2/datasets/DM/variables/DMDTC", "title": "Date/Time of Collection", "type": "SDTM Dataset Variable"}], "self": {"href": "/mdr/cdashig/2-1/domains/DM/fields/DMDAT", "title": "Demographics Collection Date", "type": "Data Collection Field"}}, "completionInstructions": "Record the date of collection using this format (DD-MON-YYYY).", "core": "R/C", "definition": "The date of collection represented in an unambiguous date format (e.g., DD-MON-YYYY)", "implementationNotes": "The date of collection may be determined from the date of visit; if so, a separate date field is not needed.", "label": "Demographics Collection Date", "mappingInstructions": "This does not map directly to an SDTMIG variable. For the SDTM submission dataset, concatenate all collected CDASH DATE and TIME components and populate the SDTMIG variable DMDTC in ISO 8601 format.", "name": "DMDAT", "ordinal": "11", "prompt": "Collection Date", "questionText": "What is the date of collection?", "simpleDatatype": "Char"}, {"_links": {"codelist": [{"href": "/mdr/root/ct/sdtmct/codelists/C66731", "title": "Version-agnostic anchor resource for codelist C66731", "type": "Root Value Domain"}], "implements": {"href": "/mdr/cdash/1-1/domains/DM/fields/SEX", "title": "Sex", "type": "Data Collection Field"}, "parentDomain": {"href": "/mdr/cdashig/2-1/domains/DM", "title": "Demographics", "type": "CDASH Domain"}, "parentProduct": {"href": "/mdr/cdashig/2-1", "title": "Clinical Data Acquisition Standards Harmonization Implementation Guide for Human Clinical Trials Version 2.1", "type": "Implementation Guide"}, "priorVersion": {"href": "/mdr/cdashig/2-0/domains/DM/fields/SEX", "title": "Sex", "type": "Data Collection Field"}, "rootItem": {"href": "/mdr/root/cdashig/domains/DM/fields/SEX", "title": "Version-agnostic anchor element for field DM.SEX", "type": "Root Data Element"}, "sdtmigDatasetMappingTargets": [{"href": "/mdr/sdtmig/3-2/datasets/DM/variables/SEX", "title": "Sex", "type": "SDTM Dataset Variable"}], "self": {"href": "/mdr/cdashig/2-1/domains/DM/fields/SEX", "title": "Sex", "type": "Data Collection Field"}}, "completionInstructions": "Record the appropriate sex (e.g., F (female), M (male).", "core": "R/C", "definition": "Sex of the subject as determined by the investigator.", "implementationNotes": "Collect the subject's sex or gender, as reported by the investigator. This is a phenotypic assessment and not a genotypic assessment.", "label": "Sex", "mappingInstructions": "Maps directly to the SDTMIG variable listed in the column with the heading SDTMIG Target.", "name": "SEX", "ordinal": "12", "prompt": "Sex", "questionText": "What is the sex of the subject?", "simpleDatatype": "Char"}, {"_links": {"codelist": [{"href": "/mdr/root/ct/sdtmct/codelists/C66790", "title": "Version-agnostic anchor resource for codelist C66790", "type": "Root Value Domain"}], "implements": {"href": "/mdr/cdash/1-1/domains/DM/fields/ETHNIC", "title": "Ethnicity", "type": "Data Collection Field"}, "parentDomain": {"href": "/mdr/cdashig/2-1/domains/DM", "title": "Demographics", "type": "CDASH Domain"}, "parentProduct": {"href": "/mdr/cdashig/2-1", "title": "Clinical Data Acquisition Standards Harmonization Implementation Guide for Human Clinical Trials Version 2.1", "type": "Implementation Guide"}, "priorVersion": {"href": "/mdr/cdashig/2-0/domains/DM/fields/ETHNIC", "title": "Ethnicity", "type": "Data Collection Field"}, "rootItem": {"href": "/mdr/root/cdashig/domains/DM/fields/ETHNIC", "title": "Version-agnostic anchor element for field DM.ETHNIC", "type": "Root Data Element"}, "sdtmigDatasetMappingTargets": [{"href": "/mdr/sdtmig/3-2/datasets/DM/variables/ETHNIC", "title": "Ethnicity", "type": "SDTM Dataset Variable"}], "self": {"href": "/mdr/cdashig/2-1/domains/DM/fields/ETHNIC", "title": "Ethnicity", "type": "Data Collection Field"}}, "completionInstructions": "Study participants should self-report ethnicity, with ethnicity being asked about before race.", "core": "O", "definition": "A social group characterized by a distinctive social and cultural tradition maintained from generation to generation, a common history and origin and a sense of identification with the group; members of the group have distinctive features in their way of life, shared experiences and often a common genetic heritage; these features may be reflected in their experience of health and disease.", "implementationNotes": "For use when values are being collected using the exact non-extensible ETHNIC codelist (C66790) values. Sponsors should refer to the FDA's Collection of Race and Ethnicity Data in Clinical Trials guidance regarding the collection of ethnicity (http://www.fda.gov/).", "label": "Ethnicity", "mappingInstructions": "Maps directly to the SDTMIG variable listed in the column with the heading SDTMIG Target.", "name": "ETHNIC", "ordinal": "13", "prompt": "Ethnicity", "questionText": "Do you consider yourself Hispanic/Latino or not Hispanic/Latino?", "simpleDatatype": "Char"}, {"_links": {"codelist": [{"href": "/mdr/root/ct/sdtmct/codelists/C128690", "title": "Version-agnostic anchor resource for codelist C128690", "type": "Root Value Domain"}], "implements": {"href": "/mdr/cdash/1-1/domains/DM/fields/CETHNIC", "title": "Collected Ethnicity", "type": "Data Collection Field"}, "parentDomain": {"href": "/mdr/cdashig/2-1/domains/DM", "title": "Demographics", "type": "CDASH Domain"}, "parentProduct": {"href": "/mdr/cdashig/2-1", "title": "Clinical Data Acquisition Standards Harmonization Implementation Guide for Human Clinical Trials Version 2.1", "type": "Implementation Guide"}, "priorVersion": {"href": "/mdr/cdashig/2-0/domains/DM/fields/CETHNIC", "title": "Collected Ethnicity", "type": "Data Collection Field"}, "rootItem": {"href": "/mdr/root/cdashig/domains/DM/fields/CETHNIC", "title": "Version-agnostic anchor element for field DM.CETHNIC", "type": "Root Data Element"}, "sdtmigDatasetMappingTargets": [{"href": "/mdr/sdtmig/3-2/datasets/SUPPQUAL/variables/QVAL", "title": "Data Value", "type": "SDTM Dataset Variable"}], "self": {"href": "/mdr/cdashig/2-1/domains/DM/fields/CETHNIC", "title": "Collected Ethnicity", "type": "Data Collection Field"}}, "completionInstructions": "Study participants should self-report ethnicity, with ethnicity being asked about before race.", "core": "O", "definition": "A social group characterized by a distinctive social and cultural tradition maintained from generation to generation, a common history and origin and a sense of identification with the group; members of the group have distinctive features in their way of life, shared experiences and often a common genetic heritage; these features may be reflected in their experience of health and disease.", "implementationNotes": "Use when values are collected using the NCI Thesaurus codelist for Ethnicity As Collected (C128690), the extended HL7 hierarchy of codelist values, or other regulatory agency-specific controlled terminology for Ethnic Group. Sponsors may append a suffix to denote multiple collected ethnicities (e.g. CETHNIC1, CETHNIC2).", "label": "Collected Ethnicity", "mappingInstructions": "This does not map directly to an SDTMIG variable. This information could be submitted in a SUPPDM dataset as the value of SUPPDM.QVAL where SUPPDM.QNAM = \"CETHNIC\" and SUPPDM.QLABEL= \"Collected Ethnicity\". See SDTMIG v3.2 Section 5, DM Domain. Refer to the current SDTM and SDTMIG for instructions on placement of non-standard variables in SDTM domains.", "name": "CETHNIC", "ordinal": "14", "prompt": "Ethnicity", "questionText": "What is the ethnicity of the subject?", "simpleDatatype": "Char"}, {"_links": {"codelist": [{"href": "/mdr/root/ct/sdtmct/codelists/C74457", "title": "Version-agnostic anchor resource for codelist C74457", "type": "Root Value Domain"}], "implements": {"href": "/mdr/cdash/1-1/domains/DM/fields/RACE", "title": "Race", "type": "Data Collection Field"}, "parentDomain": {"href": "/mdr/cdashig/2-1/domains/DM", "title": "Demographics", "type": "CDASH Domain"}, "parentProduct": {"href": "/mdr/cdashig/2-1", "title": "Clinical Data Acquisition Standards Harmonization Implementation Guide for Human Clinical Trials Version 2.1", "type": "Implementation Guide"}, "priorVersion": {"href": "/mdr/cdashig/2-0/domains/DM/fields/RACE", "title": "Race", "type": "Data Collection Field"}, "rootItem": {"href": "/mdr/root/cdashig/domains/DM/fields/RACE", "title": "Version-agnostic anchor element for field DM.RACE", "type": "Root Data Element"}, "sdtmigDatasetMappingTargets": [{"href": "/mdr/sdtmig/3-2/datasets/DM/variables/RACE", "title": "Race", "type": "SDTM Dataset Variable"}], "self": {"href": "/mdr/cdashig/2-1/domains/DM/fields/RACE", "title": "Race", "type": "Data Collection Field"}}, "completionInstructions": "Study participants should self-report race, with race being asked about after ethnicity.", "core": "R/C", "definition": "An arbitrary classification based on physical characteristics; a group of persons related by common descent or heredity (U.S. Center for Disease Control).", "implementationNotes": "Use RACE when the 5 designations for race used by the FDA are collected (American Indian or Alaska Native; Asian; Black or African American; Native Hawaiian or Other Pacific Islander ; White).* Sponsors should refer to the FDA Guidance. See SDTMIG v3.2 Section 5, DM Domain. \n *For studies where data are collected outside the US, the recommended categories are the same except for Black instead of Black or African American. If multiple races are collected, an alternate sponsor-defined variable structure would be required. Sponsors may record multiple self-reported races for a subject by appending a suffix to denote multiple collected races (e.g. RACE1, RACE2) and populate RACE with the value MULTIPLE.", "label": "Race", "mappingInstructions": "Maps directly to the SDTMIG variable listed in the column with the heading SDTMIG Target.", "name": "RACE", "ordinal": "15", "prompt": "Race", "questionText": "Which of the following five racial designations best describes you? (More than one choice is acceptable.)", "simpleDatatype": "Char"}, {"_links": {"codelist": [{"href": "/mdr/root/ct/sdtmct/codelists/C128689", "title": "Version-agnostic anchor resource for codelist C128689", "type": "Root Value Domain"}], "implements": {"href": "/mdr/cdash/1-1/domains/DM/fields/CRACE", "title": "Collected Race", "type": "Data Collection Field"}, "parentDomain": {"href": "/mdr/cdashig/2-1/domains/DM", "title": "Demographics", "type": "CDASH Domain"}, "parentProduct": {"href": "/mdr/cdashig/2-1", "title": "Clinical Data Acquisition Standards Harmonization Implementation Guide for Human Clinical Trials Version 2.1", "type": "Implementation Guide"}, "priorVersion": {"href": "/mdr/cdashig/2-0/domains/DM/fields/CRACE", "title": "Collected Race", "type": "Data Collection Field"}, "rootItem": {"href": "/mdr/root/cdashig/domains/DM/fields/CRACE", "title": "Version-agnostic anchor element for field DM.CRACE", "type": "Root Data Element"}, "sdtmigDatasetMappingTargets": [{"href": "/mdr/sdtmig/3-2/datasets/SUPPQUAL/variables/QVAL", "title": "Data Value", "type": "SDTM Dataset Variable"}], "self": {"href": "/mdr/cdashig/2-1/domains/DM/fields/CRACE", "title": "Collected Race", "type": "Data Collection Field"}}, "completionInstructions": "Study participants should self-report race, with race being asked about after ethnicity. (The FDA guidance suggests that individuals be permitted to designate a multiracial identity. Check all that apply at the time of collection).", "core": "R/C", "definition": "An arbitrary classification based on physical characteristics; a group of persons related by common descent or heredity (US Centers for Disease Control).", "implementationNotes": "Use CRACE when more detailed race categorizations are desired (e.g., more than the 5 minimum designations for race used by the FDA). The use of race and vocabulary tables located within the HL7 Reference Information Model Structural Vocabulary Tables is recommended, as they are designed to collapse up to the SDTM variable RACE with CT (e.g., American Indian or Alaska Native Asian; Black or African American; Native Hawaiian or Other Pacific Islander; White ).* If sponsors choose to map the extended Race codelist values to RACE CT (e.g., Japanese to Asian), then this mapped variable would be reported using the SDTMIG variable RACE. Sponsors should refer to the FDA Guidance. \n *For studies where data are collected outside the US, the recommended categories are the same except for Black instead of Black or African American. If multiple races are collected, an alternate sponsor-defined variable structure would be required. Sponsors may record multiple self-reported races for a subject by appending a suffix to denote multiple collected races (e.g. CRACE1, CRACE2) and populate CRACE with the value MULTIPLE.", "label": "Collected Race", "mappingInstructions": "This does not map directly to an SDTMIG variable. This information could be submitted in a SUPPDM dataset as the value of SUPPDM.QVAL when SUPPDM.QNAM = \"CRACE\" and SUPPDM.QLABEL=\"Collected Race\". See SDTMIG v3.2 Section 5 for the DM Domain.", "name": "CRACE", "ordinal": "16", "prompt": "Race", "questionText": "Which of the following racial designations best describes you? (More than one choice is acceptable.)", "simpleDatatype": "Char"}, {"_links": {"implements": {"href": "/mdr/cdash/1-1/domains/DM/fields/RACEOTH", "title": "Race Other", "type": "Data Collection Field"}, "parentDomain": {"href": "/mdr/cdashig/2-1/domains/DM", "title": "Demographics", "type": "CDASH Domain"}, "parentProduct": {"href": "/mdr/cdashig/2-1", "title": "Clinical Data Acquisition Standards Harmonization Implementation Guide for Human Clinical Trials Version 2.1", "type": "Implementation Guide"}, "priorVersion": {"href": "/mdr/cdashig/2-0/domains/DM/fields/RACEOTH", "title": "Race Other", "type": "Data Collection Field"}, "rootItem": {"href": "/mdr/root/cdashig/domains/DM/fields/RACEOTH", "title": "Version-agnostic anchor element for field DM.RACEOTH", "type": "Root Data Element"}, "sdtmigDatasetMappingTargets": [{"href": "/mdr/sdtmig/3-2/datasets/SUPPQUAL/variables/QVAL", "title": "Data Value", "type": "SDTM Dataset Variable"}], "self": {"href": "/mdr/cdashig/2-1/domains/DM/fields/RACEOTH", "title": "Race Other", "type": "Data Collection Field"}}, "completionInstructions": "If none of the pre-printed values for RACE are applicable or if another, unprinted selection should be added to those pre-printed values, record the value in this free text field.", "core": "O", "definition": "A free-text field to be used when none of the preprinted values for RACE are applicable or if another, unprinted selection should be added to those preprinted values.", "implementationNotes": "When creating the DM form, it is suggested that the 5 standard race categories be included. Sponsors may choose to include another value of Specify, Other with a free-text field for extending the list of values. The RACEOTH variable contains the free text added by the site. The value(s) added in the optional variable might or might not \"collapse up\" into one of the 5 categories specified by the FDA Guidance. See SDTMIG v3.2, Section 5 -DM Domain for examples of reporting this implementation.", "label": "Race Other", "mappingInstructions": "This does not map directly to an SDTMIG variable. This information could be submitted in a SUPPDM dataset as the value of SUPPDM.QVAL where SUPPDM.QNAM = \"RACEOTH\" and SUPP.QLABEL=\"RACE OTHER\". See SDTMIG v3.2 Section 5, DM Domain. Refer to the current SDTM and SDTMIG for instructions on placement of non-standard variables in SDTM domains.", "name": "RACEOTH", "ordinal": "17", "prompt": "Specify Other Race", "questionText": "What was the other race?", "simpleDatatype": "Char"}], "label": "Demographics", "name": "DM", "ordinal": "7"}], "label": "Special-Purpose", "name": "Special-Purpose", "ordinal": "1"}, {"_links": {"modelClass": {"href": "/mdr/cdash/1-1/classes/Interventions", "title": "Interventions", "type": "Class"}, "parentProduct": {"href": "/mdr/cdashig/2-1", "title": "Clinical Data Acquisition Standards Harmonization Implementation Guide for Human Clinical Trials Version 2.1", "type": "Implementation Guide"}, "priorVersion": {"href": "/mdr/cdashig/2-0/classes/Interventions", "title": "Interventions Observation Class", "type": "Class"}, "self": {"href": "/mdr/cdashig/2-1/classes/Interventions", "title": "Interventions", "type": "Class"}}, "description": "The Interventions class includes CDASH domains that define collection standards for investigational treatments, therapeutic treatments, and procedures that are intentionally administered to the subject either as specified by the study protocol (e.g., exposure), coincident with the study assessment period (e.g., concomitant medications), or self-administered by the subject (e.g., alcohol, tobacco, caffeine). (Source: CDASHIG v2.1, Section 8.1)", "domains": [{"_links": {"parentClass": {"href": "/mdr/cdashig/2-1/classes/Interventions", "title": "Interventions", "type": "Class"}, "parentProduct": {"href": "/mdr/cdashig/2-1", "title": "Clinical Data Acquisition Standards Harmonization Implementation Guide for Human Clinical Trials Version 2.1", "type": "Implementation Guide"}, "priorVersion": {"href": "/mdr/cdashig/2-0/domains/CM", "title": "Concomitant Medications", "type": "CDASH Domain"}, "self": {"href": "/mdr/cdashig/2-1/domains/CM", "title": "Concomitant Medications", "type": "CDASH Domain"}}, "fields": [{"_links": {"implements": {"href": "/mdr/cdash/1-1/classes/Identifiers/fields/STUDYID", "title": "Study Identifier", "type": "Class Variable"}, "parentDomain": {"href": "/mdr/cdashig/2-1/domains/CM", "title": "Concomitant Medications", "type": "CDASH Domain"}, "parentProduct": {"href": "/mdr/cdashig/2-1", "title": "Clinical Data Acquisition Standards Harmonization Implementation Guide for Human Clinical Trials Version 2.1", "type": "Implementation Guide"}, "priorVersion": {"href": "/mdr/cdashig/2-0/domains/CM/fields/STUDYID", "title": "Study Identifier", "type": "Data Collection Field"}, "rootItem": {"href": "/mdr/root/cdashig/domains/CM/fields/STUDYID", "title": "Version-agnostic anchor element for field CM.STUDYID", "type": "Root Data Element"}, "sdtmigDatasetMappingTargets": [{"href": "/mdr/sdtmig/3-2/datasets/CM/variables/STUDYID", "title": "Study Identifier", "type": "SDTM Dataset Variable"}], "self": {"href": "/mdr/cdashig/2-1/domains/CM/fields/STUDYID", "title": "Study Identifier", "type": "Data Collection Field"}}, "core": "HR", "definition": "A unique identifier for a study.", "implementationNotes": "While this field is not typically captured on a CRF, it should be displayed clearly on the CRF and/or the EDC system. This field can be included into the database or populated during SDTM-based dataset creation before submission.", "label": "Study Identifier", "mappingInstructions": "Maps directly to the SDTMIG variable listed in the column with the heading \"SDTMIG Target\".", "name": "STUDYID", "ordinal": "1", "prompt": "[Protocol/Study]", "questionText": "What is the study identifier?", "simpleDatatype": "Char"}, {"_links": {"implements": {"href": "/mdr/cdash/1-1/classes/Identifiers/fields/SITEID", "title": "Study Site Identifier", "type": "Class Variable"}, "parentDomain": {"href": "/mdr/cdashig/2-1/domains/CM", "title": "Concomitant Medications", "type": "CDASH Domain"}, "parentProduct": {"href": "/mdr/cdashig/2-1", "title": "Clinical Data Acquisition Standards Harmonization Implementation Guide for Human Clinical Trials Version 2.1", "type": "Implementation Guide"}, "priorVersion": {"href": "/mdr/cdashig/2-0/domains/CM/fields/SITEID", "title": "Study Site Identifier", "type": "Data Collection Field"}, "rootItem": {"href": "/mdr/root/cdashig/domains/CM/fields/SITEID", "title": "Version-agnostic anchor element for field CM.SITEID", "type": "Root Data Element"}, "sdtmigDatasetMappingTargets": [{"href": "/mdr/sdtmig/3-2/datasets/DM/variables/SITEID", "title": "Study Site Identifier", "type": "SDTM Dataset Variable"}], "self": {"href": "/mdr/cdashig/2-1/domains/CM/fields/SITEID", "title": "Study Site Identifier", "type": "Data Collection Field"}}, "core": "HR", "definition": "A unique identifier for a site within a study.", "implementationNotes": "Paper: This is typically preprinted in the header of each CRF page for single site studies. For studies with multiple sites, this field may be left blank so that the number can be recorded by the site, or it may be preprinted on CRFs that are shipped to each site. EDC: This should be prepopulated.", "label": "Study Site Identifier", "mappingInstructions": "Maps directly to the SDTMIG variable listed in the column with the heading \"SDTMIG Target\".", "name": "SITEID", "ordinal": "2", "prompt": "Site (Identifier)", "questionText": "What is the site identifier?", "simpleDatatype": "Char"}, {"_links": {"implements": {"href": "/mdr/cdash/1-1/classes/Identifiers/fields/SUBJID", "title": "Subject Identifier for the Study", "type": "Class Variable"}, "parentDomain": {"href": "/mdr/cdashig/2-1/domains/CM", "title": "Concomitant Medications", "type": "CDASH Domain"}, "parentProduct": {"href": "/mdr/cdashig/2-1", "title": "Clinical Data Acquisition Standards Harmonization Implementation Guide for Human Clinical Trials Version 2.1", "type": "Implementation Guide"}, "priorVersion": {"href": "/mdr/cdashig/2-0/domains/CM/fields/SUBJID", "title": "Subject Identifier for the Study", "type": "Data Collection Field"}, "rootItem": {"href": "/mdr/root/cdashig/domains/CM/fields/SUBJID", "title": "Version-agnostic anchor element for field CM.SUBJID", "type": "Root Data Element"}, "sdtmigDatasetMappingTargets": [{"href": "/mdr/sdtmig/3-2/datasets/DM/variables/SUBJID", "title": "Subject Identifier for the Study", "type": "SDTM Dataset Variable"}], "self": {"href": "/mdr/cdashig/2-1/domains/CM/fields/SUBJID", "title": "Subject Identifier for the Study", "type": "Data Collection Field"}}, "completionInstructions": "Record the identifier for the subject.", "core": "HR", "definition": "A unique subject identifier within a site and a study.", "implementationNotes": "Paper: This is typically recorded in the header of each CRF page. EDC: The subject identifiers may be system generated. This CDASH variable is typically collected in all CDASH domains. However, this CDASH variable is populated only in the SDTMIG DM domain. For more information, refer to the SDTM Implementation Guide.", "label": "Subject Identifier for the Study", "mappingInstructions": "Maps directly to the SDTMIG variable listed in the column with the heading \"SDTMIG Target\".", "name": "SUBJID", "ordinal": "3", "prompt": "[Subject/Participant] (Identifier)", "questionText": "What [is/was] the (study) [subject/participant] identifier?", "simpleDatatype": "Char"}, {"_links": {"implements": {"href": "/mdr/cdash/1-1/classes/Interventions/fields/--CAT", "title": "Category", "type": "Class Variable"}, "parentDomain": {"href": "/mdr/cdashig/2-1/domains/CM", "title": "Concomitant Medications", "type": "CDASH Domain"}, "parentProduct": {"href": "/mdr/cdashig/2-1", "title": "Clinical Data Acquisition Standards Harmonization Implementation Guide for Human Clinical Trials Version 2.1", "type": "Implementation Guide"}, "priorVersion": {"href": "/mdr/cdashig/2-0/domains/CM/fields/CMCAT", "title": "Category for Concomitant Medication", "type": "Data Collection Field"}, "rootItem": {"href": "/mdr/root/cdashig/domains/CM/fields/CMCAT", "title": "Version-agnostic anchor element for field CM.CMCAT", "type": "Root Data Element"}, "sdtmigDatasetMappingTargets": [{"href": "/mdr/sdtmig/3-2/datasets/CM/variables/CMCAT", "title": "Category for Medication", "type": "SDTM Dataset Variable"}], "self": {"href": "/mdr/cdashig/2-1/domains/CM/fields/CMCAT", "title": "Category for Medication", "type": "Data Collection Field"}}, "completionInstructions": "Record the (concomitant) [medication/treatment/therapy] category, if not pre-printed on the CRF.", "core": "O", "definition": "A grouping of topic-variable values based on user-defined characteristics.", "implementationNotes": "Sponsor-defined controlled terminology. This would most commonly be either a heading, or a preprinted category value on the CRF and not a question to which the site would provide an answer. If a question is asked, the response would typically be a sponsor-defined codelist. If the form is laid out as a grid, then words such as \"Category\" can be included as the column header.", "label": "Category for Medication", "mappingInstructions": "Maps directly to the SDTMIG variable listed in the column with the heading \"SDTMIG Target\".", "name": "CMCAT", "ordinal": "4", "prompt": "(Concomitant) [Medication/Treatment/Therapy Category]; NULL", "questionText": "What is the category for the (concomitant) [medication/treatment/therapy]?", "simpleDatatype": "Char"}, {"_links": {"implements": {"href": "/mdr/cdash/1-1/classes/Interventions/fields/--SCAT", "title": "Subcategory", "type": "Class Variable"}, "parentDomain": {"href": "/mdr/cdashig/2-1/domains/CM", "title": "Concomitant Medications", "type": "CDASH Domain"}, "parentProduct": {"href": "/mdr/cdashig/2-1", "title": "Clinical Data Acquisition Standards Harmonization Implementation Guide for Human Clinical Trials Version 2.1", "type": "Implementation Guide"}, "priorVersion": {"href": "/mdr/cdashig/2-0/domains/CM/fields/CMSCAT", "title": "Subcategory for Concomitant Medication", "type": "Data Collection Field"}, "rootItem": {"href": "/mdr/root/cdashig/domains/CM/fields/CMSCAT", "title": "Version-agnostic anchor element for field CM.CMSCAT", "type": "Root Data Element"}, "sdtmigDatasetMappingTargets": [{"href": "/mdr/sdtmig/3-2/datasets/CM/variables/CMSCAT", "title": "Subcategory for Medication", "type": "SDTM Dataset Variable"}], "self": {"href": "/mdr/cdashig/2-1/domains/CM/fields/CMSCAT", "title": "Subcategory for Medication", "type": "Data Collection Field"}}, "completionInstructions": "Record (concomitant) [medication/treatment/therapy] subcategory, if not pre-printed on the CRF.", "core": "O", "definition": "A sub-division of the CMCAT values based on user-defined characteristics.", "implementationNotes": "Sponsor-defined controlled terminology. This would most commonly be pre-printed on the CRF or screen and prepopulated in the data management system. This is not typically a question to which the site would provide an answer.", "label": "Subcategory for Medication", "mappingInstructions": "Maps directly to the SDTMIG variable listed in the column with the heading \"SDTMIG Target\".", "name": "CMSCAT", "ordinal": "5", "prompt": "(Concomitant) [Medication/Treatment/Therapy subcategory]; NULL", "questionText": "What is the subcategory for the (concomitant) [medication/treatment/therapy]?", "simpleDatatype": "Char"}, {"_links": {"codelist": [{"href": "/mdr/root/ct/sdtmct/codelists/C66742", "title": "Version-agnostic anchor resource for codelist C66742", "type": "Root Value Domain"}], "implements": {"href": "/mdr/cdash/1-1/classes/Interventions/fields/--YN", "title": "Any [Intervention]", "type": "Class Variable"}, "parentDomain": {"href": "/mdr/cdashig/2-1/domains/CM", "title": "Concomitant Medications", "type": "CDASH Domain"}, "parentProduct": {"href": "/mdr/cdashig/2-1", "title": "Clinical Data Acquisition Standards Harmonization Implementation Guide for Human Clinical Trials Version 2.1", "type": "Implementation Guide"}, "priorVersion": {"href": "/mdr/cdashig/2-0/domains/CM/fields/CMYN", "title": "Any Concomitant Medications Taken", "type": "Data Collection Field"}, "rootItem": {"href": "/mdr/root/cdashig/domains/CM/fields/CMYN", "title": "Version-agnostic anchor element for field CM.CMYN", "type": "Root Data Element"}, "self": {"href": "/mdr/cdashig/2-1/domains/CM/fields/CMYN", "title": "Any Concomitant Medications Taken", "type": "Data Collection Field"}}, "completionInstructions": "Indicate if the subject took any (concomitant) [medications/treatments]. If Yes, include the appropriate details where indicated on the CRF.", "core": "O", "definition": "An indication whether or not any (concomitant) medications/treatments/therapies were taken/given.", "implementationNotes": "The intent/purpose of collecting this field is to help with data cleaning and monitoring. It provides verification that all other fields on the CRF were deliberately left blank.", "label": "Any Concomitant Medications Taken", "mappingInstructions": "Does not map to an SDTMIG variable. The SDTM Annotated CRF is annotated to indicate that this field is NOT SUBMITTED.", "name": "CMYN", "ordinal": "6", "prompt": "Any (Concomitant) [Medication(s)/Treatment(s)/Therapy(ies)]", "questionText": "Were/Was any (concomitant) [medication(s)/treatment(s)/therapy(ies)] taken?", "simpleDatatype": "Char"}, {"_links": {"implements": {"href": "/mdr/cdash/1-1/classes/Identifiers/fields/--SPID", "title": "Sponsor-Defined Identifier", "type": "Class Variable"}, "parentDomain": {"href": "/mdr/cdashig/2-1/domains/CM", "title": "Concomitant Medications", "type": "CDASH Domain"}, "parentProduct": {"href": "/mdr/cdashig/2-1", "title": "Clinical Data Acquisition Standards Harmonization Implementation Guide for Human Clinical Trials Version 2.1", "type": "Implementation Guide"}, "priorVersion": {"href": "/mdr/cdashig/2-0/domains/CM/fields/CMSPID", "title": "Concomitant Meds Sponsor-Defined Identifier", "type": "Data Collection Field"}, "rootItem": {"href": "/mdr/root/cdashig/domains/CM/fields/CMSPID", "title": "Version-agnostic anchor element for field CM.CMSPID", "type": "Root Data Element"}, "sdtmigDatasetMappingTargets": [{"href": "/mdr/sdtmig/3-2/datasets/CM/variables/CMSPID", "title": "Sponsor-Defined Identifier", "type": "SDTM Dataset Variable"}], "self": {"href": "/mdr/cdashig/2-1/domains/CM/fields/CMSPID", "title": "CM Sponsor-Defined Identifier", "type": "Data Collection Field"}}, "completionInstructions": "If collected on the CRF, sponsor may insert instructions to ensure each record has a unique identifier.", "core": "O", "definition": "A sponsor-defined identifier. In CDASH, This is typically used for preprinted or auto-generated numbers on the CRF, or any other type of identifier that does not already have a defined CDASH identifier field.", "implementationNotes": "Because SPID is a sponsor-defined identifier, conformance to Question Text or Item Prompt is not applicable. Typically used as an identifier in a data query to communicate clearly to the site the specific record in question or to reconcile concomitant medication/treatment records with AEs and/or MH. May be used to record preprinted number (e.g. line number, record number) on the CRF. This field may be populated by the sponsor's data collection system.", "label": "CM Sponsor-Defined Identifier", "mappingInstructions": "Maps directly to the SDTMIG variable listed in the column with the heading \"SDTMIG Target\". May be used to create RELREC to link this record with a record in another domain.", "name": "CMSPID", "ordinal": "7", "prompt": "[Sponsor defined]", "questionText": "[Sponsor-defined question]", "simpleDatatype": "Char"}, {"_links": {"implements": {"href": "/mdr/cdash/1-1/classes/Interventions/fields/--TRT", "title": "Name of Treatment", "type": "Class Variable"}, "parentDomain": {"href": "/mdr/cdashig/2-1/domains/CM", "title": "Concomitant Medications", "type": "CDASH Domain"}, "parentProduct": {"href": "/mdr/cdashig/2-1", "title": "Clinical Data Acquisition Standards Harmonization Implementation Guide for Human Clinical Trials Version 2.1", "type": "Implementation Guide"}, "priorVersion": {"href": "/mdr/cdashig/2-0/domains/CM/fields/CMTRT", "title": "Concomitant Medication Name", "type": "Data Collection Field"}, "rootItem": {"href": "/mdr/root/cdashig/domains/CM/fields/CMTRT", "title": "Version-agnostic anchor element for field CM.CMTRT", "type": "Root Data Element"}, "sdtmigDatasetMappingTargets": [{"href": "/mdr/sdtmig/3-2/datasets/CM/variables/CMTRT", "title": "Reported Name of Drug, Med, or Therapy", "type": "SDTM Dataset Variable"}], "self": {"href": "/mdr/cdashig/2-1/domains/CM/fields/CMTRT", "title": "Reported Name of Drug, Med, or Therapy", "type": "Data Collection Field"}}, "completionInstructions": "Record only 1 [medication/treatment/therapy] per line. Provide the full trade or proprietary name of the [medication/treatment/therapy]; otherwise the generic name may be recorded.", "core": "HR", "definition": "Verbatim medication name or treatments (include only treatments with data collection characteristics similar to medications).", "implementationNotes": "In most cases, the verbatim drug names or treatment will be coded to a standard dictionary such as WHODrug after the data have been collected on the CRF. For the collection of verbatim drug name or treatments, the recommendation is to ask sites to provide the full trade or proprietary name since it is more exact than the generic. The full trade name provides the base generic and the appropriate salt for that particular drug. In addition, for coding purposes it helps with ATC selection. For example, Tylenol with codeine #1 has a different ATC code than Tylenol with codeine #3. This field can be used for either prior or concomitant medication/treatments.", "label": "Reported Name of Drug, Med, or Therapy", "mappingInstructions": "Maps directly to the SDTMIG variable listed in the column with the heading \"SDTMIG Target\".", "name": "CMTRT", "ordinal": "8", "prompt": "(Concomitant) [Medication/Treatment/Therapy]", "questionText": "What was the (concomitant) [medication/treatment/therapy] (name/term)?", "simpleDatatype": "Char"}, {"_links": {"codelist": [{"href": "/mdr/root/ct/sdtmct/codelists/C66742", "title": "Version-agnostic anchor resource for codelist C66742", "type": "Root Value Domain"}], "implements": {"href": "/mdr/cdash/1-1/classes/Interventions/fields/--PRESP", "title": "Pre-Specified Intervention", "type": "Class Variable"}, "parentDomain": {"href": "/mdr/cdashig/2-1/domains/CM", "title": "Concomitant Medications", "type": "CDASH Domain"}, "parentProduct": {"href": "/mdr/cdashig/2-1", "title": "Clinical Data Acquisition Standards Harmonization Implementation Guide for Human Clinical Trials Version 2.1", "type": "Implementation Guide"}, "rootItem": {"href": "/mdr/root/cdashig/domains/CM/fields/CMPRESP", "title": "Version-agnostic anchor element for field CM.CMPRESP", "type": "Root Data Element"}, "sdtmigDatasetMappingTargets": [{"href": "/mdr/sdtmig/3-2/datasets/CM/variables/CMPRESP", "title": "CM Pre-Specified", "type": "SDTM Dataset Variable"}], "self": {"href": "/mdr/cdashig/2-1/domains/CM/fields/CMPRESP", "title": "CM Pre-Specified", "type": "Data Collection Field"}}, "core": "O", "definition": "An indication that a specific intervention or a group of interventions is prespecified on a CRF.", "implementationNotes": "For prespecified interventions, a hidden field on a CRF defaulted to \"Y\", or added during the SDTM dataset creation. If a study collects both prespecified interventions as well as free-text interventions, the value of CMPRESP should be \"Y\" for all prespecified interventions and null for interventions reported as free text.", "label": "CM Pre-Specified", "mappingInstructions": "Maps directly to the SDTMIG variable listed in the column with the heading \"SDTMIG Target\".", "name": "CMPRESP", "ordinal": "9", "simpleDatatype": "Char"}, {"_links": {"codelist": [{"href": "/mdr/root/ct/sdtmct/codelists/C66742", "title": "Version-agnostic anchor resource for codelist C66742", "type": "Root Value Domain"}], "implements": {"href": "/mdr/cdash/1-1/classes/Interventions/fields/--OCCUR", "title": "Occurrence", "type": "Class Variable"}, "parentDomain": {"href": "/mdr/cdashig/2-1/domains/CM", "title": "Concomitant Medications", "type": "CDASH Domain"}, "parentProduct": {"href": "/mdr/cdashig/2-1", "title": "Clinical Data Acquisition Standards Harmonization Implementation Guide for Human Clinical Trials Version 2.1", "type": "Implementation Guide"}, "priorVersion": {"href": "/mdr/cdashig/2-0/domains/CM/fields/CMOCCUR", "title": "Concomitant Meds Occurrence", "type": "Data Collection Field"}, "rootItem": {"href": "/mdr/root/cdashig/domains/CM/fields/CMOCCUR", "title": "Version-agnostic anchor element for field CM.CMOCCUR", "type": "Root Data Element"}, "sdtmigDatasetMappingTargets": [{"href": "/mdr/sdtmig/3-2/datasets/CM/variables/CMOCCUR", "title": "CM Occurrence", "type": "SDTM Dataset Variable"}], "self": {"href": "/mdr/cdashig/2-1/domains/CM/fields/CMOCCUR", "title": "CM Occurrence", "type": "Data Collection Field"}}, "completionInstructions": "Indicate if [specific medication/treatment] was taken by checking Yes or No.", "core": "O", "definition": "An indication whether the prespecified medication/treatment/therapy (CMTRT) or the group of medications/treatments/therapies was administered when information about the occurrence of a specific intervention is solicited.", "implementationNotes": "CMOCCUR is used to report the occurrence of a prespecific medication/treatment. CMOCCUR is not used for spontaneously free text reported concomitant medication/treatments. The site should be able to indicate that the response was not asked or answered.", "label": "CM Occurrence", "mappingInstructions": "Maps directly to the SDTMIG variable listed in the column with the heading \"SDTMIG Target\". If the response was not asked or answered, populate the SDTMIG variable CMSTAT with \"NOT DONE\".", "name": "CMOCCUR", "ordinal": "10", "prompt": "[Specific (Concomitant) [Medication/Treatment/Therapy]", "questionText": "Did the subject take [prespecified (concomitant) medication/treatment/therapy/dose]?; Has the subject taken [prespecified (concomitant) medication/treatment/therapy/dose]?", "simpleDatatype": "Char"}, {"_links": {"implements": {"href": "/mdr/cdash/1-1/classes/Interventions/fields/--INGRD", "title": "Active Ingredients", "type": "Class Variable"}, "parentDomain": {"href": "/mdr/cdashig/2-1/domains/CM", "title": "Concomitant Medications", "type": "CDASH Domain"}, "parentProduct": {"href": "/mdr/cdashig/2-1", "title": "Clinical Data Acquisition Standards Harmonization Implementation Guide for Human Clinical Trials Version 2.1", "type": "Implementation Guide"}, "priorVersion": {"href": "/mdr/cdashig/2-0/domains/CM/fields/CMINGRD", "title": "Concomitant Meds Active Ingredients", "type": "Data Collection Field"}, "rootItem": {"href": "/mdr/root/cdashig/domains/CM/fields/CMINGRD", "title": "Version-agnostic anchor element for field CM.CMINGRD", "type": "Root Data Element"}, "self": {"href": "/mdr/cdashig/2-1/domains/CM/fields/CMINGRD", "title": "Concomitant Meds Active Ingredients", "type": "Data Collection Field"}}, "completionInstructions": "Prior to a subject's clinical visit, remind all subjects to bring all medications bottles, packs etc. they are taking with them to their clinical visit. Record all active ingredient(s) off the medication label and separate each ingredient with a comma for the name of drug medication or treatment taken. For example, the medication Dolmen, if manufactured in Spain, the active ingredients should be collected as noted below: Active Ingredient: Acetylsalicylic Acid, Ascorbic acid, codeine phosphate.", "core": "O", "definition": "Medication Ingredients.", "implementationNotes": "This may be collected in addition to the Medication/Treatment Name. Collecting this provides more detailed information when coding to a medication dictionary like WHODrug Dictionary Enhanced Format C, which now codes to the ingredient level for many trade-named medications. For example, depending on the country where it is manufactured, the active ingredients in the medication Dolmen may be different: In Spain, Acetylsalicylic Acid, Ascorbic acid, codeine phosphate; in Italy and Czech Republic, contains Tenoxicam; in Estonia and Latvia, contains Dexketoprofen trometamol.", "label": "Concomitant Meds Active Ingredients", "mappingInstructions": "Does not map to an SDTMIG variable. The SDTM Annotated CRF is annotated to indicate that this field is NOT SUBMITTED.", "name": "CMINGRD", "ordinal": "11", "prompt": "Active Ingredients", "questionText": "What were the active ingredients?", "simpleDatatype": "Char"}, {"_links": {"implements": {"href": "/mdr/cdash/1-1/classes/Interventions/fields/--INDC", "title": "Indication", "type": "Class Variable"}, "parentDomain": {"href": "/mdr/cdashig/2-1/domains/CM", "title": "Concomitant Medications", "type": "CDASH Domain"}, "parentProduct": {"href": "/mdr/cdashig/2-1", "title": "Clinical Data Acquisition Standards Harmonization Implementation Guide for Human Clinical Trials Version 2.1", "type": "Implementation Guide"}, "priorVersion": {"href": "/mdr/cdashig/2-0/domains/CM/fields/CMINDC", "title": "Concomitant Meds Indication", "type": "Data Collection Field"}, "rootItem": {"href": "/mdr/root/cdashig/domains/CM/fields/CMINDC", "title": "Version-agnostic anchor element for field CM.CMINDC", "type": "Root Data Element"}, "sdtmigDatasetMappingTargets": [{"href": "/mdr/sdtmig/3-2/datasets/CM/variables/CMINDC", "title": "Indication", "type": "SDTM Dataset Variable"}], "self": {"href": "/mdr/cdashig/2-1/domains/CM/fields/CMINDC", "title": "CM Indication", "type": "Data Collection Field"}}, "completionInstructions": "Record the reason the medication was taken based on clinical investigator's evaluation. If taken to treat a condition, and a diagnosis was made, the indication should be the diagnosis. If taken to treat a condition, and no diagnosis was made, the indication should be the signs and symptoms. If taken as prophylaxis, report as \"Prophylaxis for \" and include a description of the condition(s).", "core": "R/C", "definition": "The condition, disease, symptom, or disorder that the concomitant (non-study) medication/treatment/therapy was used to address or investigate (e.g., why the medication/treatment/therapy was taken or administered).", "implementationNotes": "This is not the pharmacological/therapeutic classification of an agent (e.g., antibiotic, analgesic), but the reason for its administration to the subject. This additional information is collected on the CRF when sponsors want to capture the reason(s) why a subject took a medication/treatment. This information could be used as deemed appropriate for coding, analysis (e.g., in the classification of medications), for reconciling the medications/treatments taken by a subject with provided medical history, and/or AEs/SAEs as part of the data clean-up and monitoring process.", "label": "CM Indication", "mappingInstructions": "Maps directly to the SDTMIG variable listed in the column with the heading \"SDTMIG Target\".", "name": "CMINDC", "ordinal": "12", "prompt": "Indication", "questionText": "For what indication was the (concomitant) [medication/treatment/therapy] taken?", "simpleDatatype": "Char"}, {"_links": {"implements": {"href": "/mdr/cdash/1-1/classes/Identifiers/fields/--AENO", "title": "Related Adverse Event ID", "type": "Class Variable"}, "parentDomain": {"href": "/mdr/cdashig/2-1/domains/CM", "title": "Concomitant Medications", "type": "CDASH Domain"}, "parentProduct": {"href": "/mdr/cdashig/2-1", "title": "Clinical Data Acquisition Standards Harmonization Implementation Guide for Human Clinical Trials Version 2.1", "type": "Implementation Guide"}, "priorVersion": {"href": "/mdr/cdashig/2-0/domains/CM/fields/CMAENO", "title": "Related Adverse Event ID", "type": "Data Collection Field"}, "rootItem": {"href": "/mdr/root/cdashig/domains/CM/fields/CMAENO", "title": "Version-agnostic anchor element for field CM.CMAENO", "type": "Root Data Element"}, "self": {"href": "/mdr/cdashig/2-1/domains/CM/fields/CMAENO", "title": "Related Adverse Event ID", "type": "Data Collection Field"}}, "completionInstructions": "Record the identifier of the Adverse Event for which this (concomitant) [medication/treatment/therapy] was taken.", "core": "O", "definition": "Identifier for the adverse event that is the indication for this medication/treatment/therapy.", "implementationNotes": "Intent is to establish a link between the medication/treatment and the AE that was reported. CMAENO can be used to identify a relationship between records in CM dataset and records in the AE dataset. See SDTMIG v3.2 Section 8.2 for information on RELREC.", "label": "Related Adverse Event ID", "mappingInstructions": "This does not map directly to an SDTMIG variable. For the SDTM submission datasets, may be used to create RELREC to link this record with a record in the Adverse Events domain.", "name": "CMAENO", "ordinal": "13", "prompt": "Adverse Event Identifier", "questionText": "What was the identifier for the adverse event(s) for which the (concomitant) [medication/treatment/therapy] was taken?", "simpleDatatype": "Char"}, {"_links": {"implements": {"href": "/mdr/cdash/1-1/classes/Identifiers/fields/--MHNO", "title": "Related Medical History Event ID", "type": "Class Variable"}, "parentDomain": {"href": "/mdr/cdashig/2-1/domains/CM", "title": "Concomitant Medications", "type": "CDASH Domain"}, "parentProduct": {"href": "/mdr/cdashig/2-1", "title": "Clinical Data Acquisition Standards Harmonization Implementation Guide for Human Clinical Trials Version 2.1", "type": "Implementation Guide"}, "priorVersion": {"href": "/mdr/cdashig/2-0/domains/CM/fields/CMMHNO", "title": "Related Medical History Event ID", "type": "Data Collection Field"}, "rootItem": {"href": "/mdr/root/cdashig/domains/CM/fields/CMMHNO", "title": "Version-agnostic anchor element for field CM.CMMHNO", "type": "Root Data Element"}, "self": {"href": "/mdr/cdashig/2-1/domains/CM/fields/CMMHNO", "title": "Related Medical History Event ID", "type": "Data Collection Field"}}, "completionInstructions": "Record the identifier of the medical history event for which this (concomitant) [medication/treatment/therapy] was taken.", "core": "O", "definition": "Identifier for the medical history condition that is the indication for this medication/treatment/therapy.", "implementationNotes": "Intent is to establish a link between the medical history condition and the medication/treatment taken for the medical history condition. CMMHNO can be used to identify a relationship between records in the CM dataset and records in the MH dataset. See SDTMIG v3.2 Section 8.2 for information on RELREC.", "label": "Related Medical History Event ID", "mappingInstructions": "This does not map directly to an SDTMIG variable. For the SDTM submission datasets, may be used to create RELREC to link this record with a record in the Medical History domain.", "name": "CMMHNO", "ordinal": "14", "prompt": "Medical History Event Identifier", "questionText": "What was the identifier for the medical history event(s) for which the (concomitant) [medication/treatment/therapy] was taken?", "simpleDatatype": "Char"}, {"_links": {"implements": {"href": "/mdr/cdash/1-1/classes/Interventions/fields/--DOSE", "title": "Dose", "type": "Class Variable"}, "parentDomain": {"href": "/mdr/cdashig/2-1/domains/CM", "title": "Concomitant Medications", "type": "CDASH Domain"}, "parentProduct": {"href": "/mdr/cdashig/2-1", "title": "Clinical Data Acquisition Standards Harmonization Implementation Guide for Human Clinical Trials Version 2.1", "type": "Implementation Guide"}, "priorVersion": {"href": "/mdr/cdashig/2-0/domains/CM/fields/CMDOSE", "title": "Concomitant Meds Dose", "type": "Data Collection Field"}, "rootItem": {"href": "/mdr/root/cdashig/domains/CM/fields/CMDOSE", "title": "Version-agnostic anchor element for field CM.CMDOSE", "type": "Root Data Element"}, "sdtmigDatasetMappingTargets": [{"href": "/mdr/sdtmig/3-2/datasets/CM/variables/CMDOSE", "title": "Dose per Administration", "type": "SDTM Dataset Variable"}], "self": {"href": "/mdr/cdashig/2-1/domains/CM/fields/CMDOSE", "title": "CM Dose per Administration", "type": "Data Collection Field"}}, "completionInstructions": "Record the dose of (concomitant) [medication/treatment] taken per administration (e.g., 200).", "core": "O", "definition": "The dose of medication/treatment (e.g., --TRT ) given at one time represented as a numeric value.", "implementationNotes": "Used when the dose/amount taken/administered/consumed has only numeric entries. If non-numeric entries are possible, use the CDASH field CMDSTXT.", "label": "CM Dose per Administration", "mappingInstructions": "Maps directly to the SDTMIG variable listed in the column with the heading \"SDTMIG Target\".", "name": "CMDOSE", "ordinal": "15", "prompt": "[Dose/Amount] (per administration)", "questionText": "What was the individual dose (of the concomitant [medication/treatment/therapy] per administration)?", "simpleDatatype": "Num"}, {"_links": {"implements": {"href": "/mdr/cdash/1-1/classes/Interventions/fields/--DSTXT", "title": "Dose Description", "type": "Class Variable"}, "parentDomain": {"href": "/mdr/cdashig/2-1/domains/CM", "title": "Concomitant Medications", "type": "CDASH Domain"}, "parentProduct": {"href": "/mdr/cdashig/2-1", "title": "Clinical Data Acquisition Standards Harmonization Implementation Guide for Human Clinical Trials Version 2.1", "type": "Implementation Guide"}, "priorVersion": {"href": "/mdr/cdashig/2-0/domains/CM/fields/CMDSTXT", "title": "Concomitant Meds Dose Description", "type": "Data Collection Field"}, "rootItem": {"href": "/mdr/root/cdashig/domains/CM/fields/CMDSTXT", "title": "Version-agnostic anchor element for field CM.CMDSTXT", "type": "Root Data Element"}, "sdtmigDatasetMappingTargets": [{"href": "/mdr/sdtmig/3-2/datasets/CM/variables/CMDOSE", "title": "Dose per Administration", "type": "SDTM Dataset Variable"}, {"href": "/mdr/sdtmig/3-2/datasets/CM/variables/CMDOSTXT", "title": "Dose Description", "type": "SDTM Dataset Variable"}], "self": {"href": "/mdr/cdashig/2-1/domains/CM/fields/CMDSTXT", "title": "Concomitant Meds Dose Description", "type": "Data Collection Field"}}, "completionInstructions": "Record the dose of (concomitant) [medication/treatment] taken per administration (e.g., 200).", "core": "O", "definition": "The dose of medication/treatment taken per administration.", "implementationNotes": "Defining this data collection field as a dose text field allows for flexibility in capturing dose entries as numbers, text or ranges. The data collected in this dose text-format field should be separated or mapped to either SDTMIG CMDOSE if numeric or CMDOSTXT if text.", "label": "Concomitant Meds Dose Description", "mappingInstructions": "This does not map directly to an SDTMIG variable. Numeric values map to CMDOSE in SDTM. Non-numeric values (e.g., 200-400) map to CMDOSTXT in SDTM.", "name": "CMDSTXT", "ordinal": "16", "prompt": "Dose", "questionText": "What was the individual dose of the (concomitant) [medication/treatment/therapy]?", "simpleDatatype": "Char"}, {"_links": {"implements": {"href": "/mdr/cdash/1-1/classes/Interventions/fields/--DOSTOT", "title": "Total Daily Dose", "type": "Class Variable"}, "parentDomain": {"href": "/mdr/cdashig/2-1/domains/CM", "title": "Concomitant Medications", "type": "CDASH Domain"}, "parentProduct": {"href": "/mdr/cdashig/2-1", "title": "Clinical Data Acquisition Standards Harmonization Implementation Guide for Human Clinical Trials Version 2.1", "type": "Implementation Guide"}, "priorVersion": {"href": "/mdr/cdashig/2-0/domains/CM/fields/CMDOSTOT", "title": "Concomitant Meds Total Daily Dose", "type": "Data Collection Field"}, "rootItem": {"href": "/mdr/root/cdashig/domains/CM/fields/CMDOSTOT", "title": "Version-agnostic anchor element for field CM.CMDOSTOT", "type": "Root Data Element"}, "sdtmigDatasetMappingTargets": [{"href": "/mdr/sdtmig/3-2/datasets/CM/variables/CMDOSTOT", "title": "Total Daily Dose", "type": "SDTM Dataset Variable"}], "self": {"href": "/mdr/cdashig/2-1/domains/CM/fields/CMDOSTOT", "title": "CM Total Daily Dose", "type": "Data Collection Field"}}, "completionInstructions": "Record the total dose of (concomitant) [medication/treatment/therapy] taken daily.", "core": "O", "definition": "The total amount of CMTRT taken over a day using the units in CMDOSU.", "implementationNotes": "For use when only total daily dose is collected in the CRF. For general medications/treatments, it is not recommended to use Total Daily Dose. Instead, this can be calculated from other fields such as Units, Dose, and Frequency.", "label": "CM Total Daily Dose", "mappingInstructions": "Maps directly to the SDTMIG variable listed in the column with the heading \"SDTMIG Target\".", "name": "CMDOSTOT", "ordinal": "17", "prompt": "Total Daily Dose", "questionText": "What was the total daily dose of the (concomitant) [medication/treatment/therapy]?", "simpleDatatype": "Num"}, {"_links": {"codelist": [{"href": "/mdr/root/ct/sdtmct/codelists/C71620", "title": "Version-agnostic anchor resource for codelist C71620", "type": "Root Value Domain"}, {"href": "/mdr/root/ct/cdashct/codelists/C78417", "title": "Version-agnostic anchor resource for codelist C78417", "type": "Root Value Domain"}], "implements": {"href": "/mdr/cdash/1-1/classes/Interventions/fields/--DOSU", "title": "Dose Units", "type": "Class Variable"}, "parentDomain": {"href": "/mdr/cdashig/2-1/domains/CM", "title": "Concomitant Medications", "type": "CDASH Domain"}, "parentProduct": {"href": "/mdr/cdashig/2-1", "title": "Clinical Data Acquisition Standards Harmonization Implementation Guide for Human Clinical Trials Version 2.1", "type": "Implementation Guide"}, "priorVersion": {"href": "/mdr/cdashig/2-0/domains/CM/fields/CMDOSU", "title": "Concomitant Meds Dose Unit", "type": "Data Collection Field"}, "rootItem": {"href": "/mdr/root/cdashig/domains/CM/fields/CMDOSU", "title": "Version-agnostic anchor element for field CM.CMDOSU", "type": "Root Data Element"}, "sdtmigDatasetMappingTargets": [{"href": "/mdr/sdtmig/3-2/datasets/CM/variables/CMDOSU", "title": "Dose Units", "type": "SDTM Dataset Variable"}], "self": {"href": "/mdr/cdashig/2-1/domains/CM/fields/CMDOSU", "title": "CM Dose Units", "type": "Data Collection Field"}}, "completionInstructions": "Record the dose unit of the dose of concomitant [medication/treatment/therapy] taken (e.g., mg.).", "core": "R/C", "definition": "The unit associated with the concomitant medication/treatment/therapy taken (e.g., mg in \"2 mg 3 times per day\").", "implementationNotes": "When sponsors collect data for amount of dose taken (i.e., Dose, Total Daily Dose), Unit must be collected as well (if applicable).", "label": "CM Dose Units", "mappingInstructions": "Maps directly to the SDTMIG variable listed in the column with the heading \"SDTMIG Target\".", "name": "CMDOSU", "ordinal": "18", "prompt": "(Dose) Unit", "questionText": "What is the unit (for the dose of concomitant [medication/treatment/therapy])?", "simpleDatatype": "Char"}, {"_links": {"codelist": [{"href": "/mdr/root/ct/sdtmct/codelists/C66726", "title": "Version-agnostic anchor resource for codelist C66726", "type": "Root Value Domain"}, {"href": "/mdr/root/ct/cdashct/codelists/C78418", "title": "Version-agnostic anchor resource for codelist C78418", "type": "Root Value Domain"}], "implements": {"href": "/mdr/cdash/1-1/classes/Interventions/fields/--DOSFRM", "title": "Dose Form", "type": "Class Variable"}, "parentDomain": {"href": "/mdr/cdashig/2-1/domains/CM", "title": "Concomitant Medications", "type": "CDASH Domain"}, "parentProduct": {"href": "/mdr/cdashig/2-1", "title": "Clinical Data Acquisition Standards Harmonization Implementation Guide for Human Clinical Trials Version 2.1", "type": "Implementation Guide"}, "priorVersion": {"href": "/mdr/cdashig/2-0/domains/CM/fields/CMDOSFRM", "title": "Concomitant Meds Dose Form", "type": "Data Collection Field"}, "rootItem": {"href": "/mdr/root/cdashig/domains/CM/fields/CMDOSFRM", "title": "Version-agnostic anchor element for field CM.CMDOSFRM", "type": "Root Data Element"}, "sdtmigDatasetMappingTargets": [{"href": "/mdr/sdtmig/3-2/datasets/CM/variables/CMDOSFRM", "title": "Dose Form", "type": "SDTM Dataset Variable"}], "self": {"href": "/mdr/cdashig/2-1/domains/CM/fields/CMDOSFRM", "title": "CM Dose Form", "type": "Data Collection Field"}}, "completionInstructions": "Record the pharmaceutical dosage form (e.g., TABLET CAPSULE, SYRUP) of delivery for the concomitant [medication/treatment/therapy] taken.", "core": "O", "definition": "The pharmaceutical dosage form in which the CMTRT is physically presented.", "implementationNotes": "Some drugs have multiple forms and this field may be needed to code the drug to an ATC level. However, in general, this level of detail should not be necessary except for medications/treatments of interest.", "label": "CM Dose Form", "mappingInstructions": "Maps directly to the SDTMIG variable listed in the column with the heading \"SDTMIG Target\".", "name": "CMDOSFRM", "ordinal": "19", "prompt": "Dose Form", "questionText": "What was the dose form of the (concomitant) [medication/treatment/therapy]?", "simpleDatatype": "Char"}, {"_links": {"codelist": [{"href": "/mdr/root/ct/sdtmct/codelists/C71113", "title": "Version-agnostic anchor resource for codelist C71113", "type": "Root Value Domain"}, {"href": "/mdr/root/ct/cdashct/codelists/C78419", "title": "Version-agnostic anchor resource for codelist C78419", "type": "Root Value Domain"}], "implements": {"href": "/mdr/cdash/1-1/classes/Interventions/fields/--DOSFRQ", "title": "Dosing Frequency per Interval", "type": "Class Variable"}, "parentDomain": {"href": "/mdr/cdashig/2-1/domains/CM", "title": "Concomitant Medications", "type": "CDASH Domain"}, "parentProduct": {"href": "/mdr/cdashig/2-1", "title": "Clinical Data Acquisition Standards Harmonization Implementation Guide for Human Clinical Trials Version 2.1", "type": "Implementation Guide"}, "priorVersion": {"href": "/mdr/cdashig/2-0/domains/CM/fields/CMDOSFRQ", "title": "Concomitant Meds Dosing Frequency per Interval", "type": "Data Collection Field"}, "rootItem": {"href": "/mdr/root/cdashig/domains/CM/fields/CMDOSFRQ", "title": "Version-agnostic anchor element for field CM.CMDOSFRQ", "type": "Root Data Element"}, "sdtmigDatasetMappingTargets": [{"href": "/mdr/sdtmig/3-2/datasets/CM/variables/CMDOSFRQ", "title": "Dosing Frequency per Interval", "type": "SDTM Dataset Variable"}], "self": {"href": "/mdr/cdashig/2-1/domains/CM/fields/CMDOSFRQ", "title": "CM Dosing Frequency per Interval", "type": "Data Collection Field"}}, "completionInstructions": "Record how often the (concomitant) [medication/treatment/therapy] was taken (e.g., BID, PRN).", "core": "O", "definition": "The number of doses given/administered/taken during a specific interval.", "implementationNotes": "The frequency of the concomitant medication/treatment. When collected, the recommendation is to collect dosing information in separate fields (e.g., CMDOSE, CMDOSEU, CMDOSFRQ) for specific and consistent data collection and to enable programmatically utilizing these data.", "label": "CM Dosing Frequency per Interval", "mappingInstructions": "Maps directly to the SDTMIG variable listed in the column with the heading \"SDTMIG Target\".", "name": "CMDOSFRQ", "ordinal": "20", "prompt": "Frequency", "questionText": "What was the frequency of the (concomitant) [medication/treatment/therapy]?", "simpleDatatype": "Char"}, {"_links": {"codelist": [{"href": "/mdr/root/ct/sdtmct/codelists/C66729", "title": "Version-agnostic anchor resource for codelist C66729", "type": "Root Value Domain"}, {"href": "/mdr/root/ct/cdashct/codelists/C78420", "title": "Version-agnostic anchor resource for codelist C78420", "type": "Root Value Domain"}], "implements": {"href": "/mdr/cdash/1-1/classes/Interventions/fields/--ROUTE", "title": "Route of Administration", "type": "Class Variable"}, "parentDomain": {"href": "/mdr/cdashig/2-1/domains/CM", "title": "Concomitant Medications", "type": "CDASH Domain"}, "parentProduct": {"href": "/mdr/cdashig/2-1", "title": "Clinical Data Acquisition Standards Harmonization Implementation Guide for Human Clinical Trials Version 2.1", "type": "Implementation Guide"}, "priorVersion": {"href": "/mdr/cdashig/2-0/domains/CM/fields/CMROUTE", "title": "Concomitant Meds Route of Administration", "type": "Data Collection Field"}, "rootItem": {"href": "/mdr/root/cdashig/domains/CM/fields/CMROUTE", "title": "Version-agnostic anchor element for field CM.CMROUTE", "type": "Root Data Element"}, "sdtmigDatasetMappingTargets": [{"href": "/mdr/sdtmig/3-2/datasets/CM/variables/CMROUTE", "title": "Route of Administration", "type": "SDTM Dataset Variable"}], "self": {"href": "/mdr/cdashig/2-1/domains/CM/fields/CMROUTE", "title": "CM Route of Administration", "type": "Data Collection Field"}}, "completionInstructions": "Provide the route of administration for the (concomitant) [medication/treatment/therapy].", "core": "R/C", "definition": "The route of administration of the (concomitant) [medication/treatment/therapy].", "implementationNotes": "This additional information may be important to collect on the CRF when the sponsor would want to capture a medication's/treatment's route of administration for purposes such as coding and the medication/treatment may have more than one route. Some companies may use route in coding medications/treatments to be able to choose a precise preferred name and ATC code.", "label": "CM Route of Administration", "mappingInstructions": "Maps directly to the SDTMIG variable listed in the column with the heading \"SDTMIG Target\".", "name": "CMROUTE", "ordinal": "21", "prompt": "Route", "questionText": "What was the route of administration of the (concomitant) [medication/treatment/therapy]?", "simpleDatatype": "Char"}, {"_links": {"implements": {"href": "/mdr/cdash/1-1/classes/Timing/fields/--STDAT", "title": "Observation Start Date", "type": "Class Variable"}, "parentDomain": {"href": "/mdr/cdashig/2-1/domains/CM", "title": "Concomitant Medications", "type": "CDASH Domain"}, "parentProduct": {"href": "/mdr/cdashig/2-1", "title": "Clinical Data Acquisition Standards Harmonization Implementation Guide for Human Clinical Trials Version 2.1", "type": "Implementation Guide"}, "priorVersion": {"href": "/mdr/cdashig/2-0/domains/CM/fields/CMSTDAT", "title": "Concomitant Meds Start Date", "type": "Data Collection Field"}, "rootItem": {"href": "/mdr/root/cdashig/domains/CM/fields/CMSTDAT", "title": "Version-agnostic anchor element for field CM.CMSTDAT", "type": "Root Data Element"}, "sdtmigDatasetMappingTargets": [{"href": "/mdr/sdtmig/3-2/datasets/CM/variables/CMSTDTC", "title": "Start Date/Time of Medication", "type": "SDTM Dataset Variable"}], "self": {"href": "/mdr/cdashig/2-1/domains/CM/fields/CMSTDAT", "title": "Concomitant Meds Start Date", "type": "Data Collection Field"}}, "completionInstructions": "Record the date the concomitant [medication/treatment] was first taken using this format (DD-MON-YYYY). If the subject has been taking the concomitant [medication/treatment] for a considerable amount of time prior to the start of the study, it is acceptable to have an incomplete date. Concomitant [medication/treatment] taken during the study are expected to have a complete start date. Prior concomitant [medication/treatment] that are exclusionary should have both a start and end date.", "core": "R/C", "definition": "The start date when the concomitant medication/treatment/therapy was first taken, represented in an unambiguous date format (e.g., DD-MON-YYYY).", "implementationNotes": "The assumption is that sponsors should either have a Start Date or will indicate that the medication or therapy was started before, during or after the study period. The preferred method is to collect a complete Start Date. Partial dates (e.g., providing year only) for medications/treatment started a considerable amount of time prior to the start of study are acceptable.", "label": "Concomitant Meds Start Date", "mappingInstructions": "This does not map directly to an SDTMIG variable. For the SDTM submission dataset, concatenate all collected CDASH START DATE and TIME components and populate the SDTMIG variable CMSTDTC in ISO 8601 format.", "name": "CMSTDAT", "ordinal": "22", "prompt": "Start Date", "questionText": "What was the (concomitant) [medication/treatment/therapy/dose] start date?", "simpleDatatype": "Char"}, {"_links": {"implements": {"href": "/mdr/cdash/1-1/classes/Timing/fields/--STTIM", "title": "Observation Start Time", "type": "Class Variable"}, "parentDomain": {"href": "/mdr/cdashig/2-1/domains/CM", "title": "Concomitant Medications", "type": "CDASH Domain"}, "parentProduct": {"href": "/mdr/cdashig/2-1", "title": "Clinical Data Acquisition Standards Harmonization Implementation Guide for Human Clinical Trials Version 2.1", "type": "Implementation Guide"}, "priorVersion": {"href": "/mdr/cdashig/2-0/domains/CM/fields/CMSTTIM", "title": "Concomitant Meds Start Time", "type": "Data Collection Field"}, "rootItem": {"href": "/mdr/root/cdashig/domains/CM/fields/CMSTTIM", "title": "Version-agnostic anchor element for field CM.CMSTTIM", "type": "Root Data Element"}, "sdtmigDatasetMappingTargets": [{"href": "/mdr/sdtmig/3-2/datasets/CM/variables/CMSTDTC", "title": "Start Date/Time of Medication", "type": "SDTM Dataset Variable"}], "self": {"href": "/mdr/cdashig/2-1/domains/CM/fields/CMSTTIM", "title": "Concomitant Meds Start Time", "type": "Data Collection Field"}}, "completionInstructions": "Record the time (as complete as possible) that the concomitant [medication/treatment] was started.", "core": "R/C", "definition": "The time the concomitant medication/treatment/therapy was started, represented in an unambiguous time format (e.g., hh:mm:ss).", "implementationNotes": "Recommend collecting the time a concomitant medication/treatment was started only when a protocol or data collection scenarios supports it. Typically, a start time is not collected unless the subject is under the direct care of the site at the time a concomitant medication/treatment administered or the subject records the start time in a diary. See Section 3.7, Mapping Relative Times from Collection to Submissions, and SDTMIG v3.2 Section 4.1.4.7 for more information.", "label": "Concomitant Meds Start Time", "mappingInstructions": "This does not map directly to an SDTMIG variable. For the SDTM submission dataset, concatenate all collected CDASH START DATE and TIME components and populate the SDTMIG variable CMSTDTC in ISO 8601 format.", "name": "CMSTTIM", "ordinal": "23", "prompt": "Start Time", "questionText": "What was the (concomitant) [medication/treatment/therapy/dose] start time?", "simpleDatatype": "Char"}, {"_links": {"codelist": [{"href": "/mdr/root/ct/sdtmct/codelists/C66742", "title": "Version-agnostic anchor resource for codelist C66742", "type": "Root Value Domain"}], "implements": {"href": "/mdr/cdash/1-1/classes/Timing/fields/--PRIOR", "title": "Prior", "type": "Class Variable"}, "parentDomain": {"href": "/mdr/cdashig/2-1/domains/CM", "title": "Concomitant Medications", "type": "CDASH Domain"}, "parentProduct": {"href": "/mdr/cdashig/2-1", "title": "Clinical Data Acquisition Standards Harmonization Implementation Guide for Human Clinical Trials Version 2.1", "type": "Implementation Guide"}, "priorVersion": {"href": "/mdr/cdashig/2-0/domains/CM/fields/CMPRIOR", "title": "Prior Concomitant Meds", "type": "Data Collection Field"}, "rootItem": {"href": "/mdr/root/cdashig/domains/CM/fields/CMPRIOR", "title": "Version-agnostic anchor element for field CM.CMPRIOR", "type": "Root Data Element"}, "sdtmigDatasetMappingTargets": [{"href": "/mdr/sdtmig/3-2/datasets/CM/variables/CMSTRTPT", "title": "Start Relative to Reference Time Point", "type": "SDTM Dataset Variable"}, {"href": "/mdr/sdtmig/3-2/datasets/CM/variables/CMSTRF", "title": "Start Relative to Reference Period", "type": "SDTM Dataset Variable"}], "self": {"href": "/mdr/cdashig/2-1/domains/CM/fields/CMPRIOR", "title": "Prior Concomitant Meds", "type": "Data Collection Field"}}, "completionInstructions": "Check if the concomitant [medication/treatment/therapy] was started before the study.", "core": "O", "definition": "Indication the concomitant medication/treatment/therapy was given or taken prior to [CMSTTPT] or prior to the date in DM.RFSTDTC.", "implementationNotes": "Sponsors may collect this information rather than start dates. See Section 3.7, Mapping Relative Times from Collection to Submissions, and SDTMIG v3.2 Section 4.1.4.7 for more information.", "label": "Prior Concomitant Meds", "mappingInstructions": "This does not map directly to an SDTMIG variable. May be used to populate a value into an SDTM relative timing variable such as CMSTRF or CMSTRTPT. When populating CMSTRF, or CMSTRTPT, if the value of the CDASH field CMPRIOR is \"Y\" a value from the CDISC CT (STENRF) may be used. When CMPRIOR refers to the Study Reference Period (defined in DM.RFSTDTC to DM.RFENDTC) the SDTM variable CMSTRF should be populated. When CMPRIOR is compared to another time point, the SDTM variables CMSTRTPT and CMSTTPT should be used. When CMONGO is used in conjunction with another time point, the SDTM variables CMENRTPT and CMENTPT should be used. \n Note: CMSTRTPT must refer to the time point anchor described in CMSTTPT.", "name": "CMPRIOR", "ordinal": "24", "prompt": "Prior to [CMSTTPT]; Prior to Study", "questionText": "Was the (concomitant) [medication/treatment/therapy] given/taken prior to [CMSTTPT]?; Was the (concomitant) [medication/treatment/therapy] given/taken prior to study start?", "simpleDatatype": "Char"}, {"_links": {"codelist": [{"href": "/mdr/root/ct/sdtmct/codelists/C66742", "title": "Version-agnostic anchor resource for codelist C66742", "type": "Root Value Domain"}], "implements": {"href": "/mdr/cdash/1-1/classes/Interventions/fields/--ONGO", "title": "Ongoing Intervention", "type": "Class Variable"}, "parentDomain": {"href": "/mdr/cdashig/2-1/domains/CM", "title": "Concomitant Medications", "type": "CDASH Domain"}, "parentProduct": {"href": "/mdr/cdashig/2-1", "title": "Clinical Data Acquisition Standards Harmonization Implementation Guide for Human Clinical Trials Version 2.1", "type": "Implementation Guide"}, "priorVersion": {"href": "/mdr/cdashig/2-0/domains/CM/fields/CMONGO", "title": "Ongoing Concomitant Meds", "type": "Data Collection Field"}, "rootItem": {"href": "/mdr/root/cdashig/domains/CM/fields/CMONGO", "title": "Version-agnostic anchor element for field CM.CMONGO", "type": "Root Data Element"}, "sdtmigDatasetMappingTargets": [{"href": "/mdr/sdtmig/3-2/datasets/CM/variables/CMENRTPT", "title": "End Relative to Reference Time Point", "type": "SDTM Dataset Variable"}, {"href": "/mdr/sdtmig/3-2/datasets/CM/variables/CMENRF", "title": "End Relative to Reference Period", "type": "SDTM Dataset Variable"}], "self": {"href": "/mdr/cdashig/2-1/domains/CM/fields/CMONGO", "title": "Ongoing Concomitant Meds", "type": "Data Collection Field"}}, "completionInstructions": "Record the concomitant [medication/treatment/therapy] as ongoing if the subject has not stopped taking the concomitant [medication/treatment/therapy] at [the timepoint defined by the study]. If the concomitant medication is ongoing, the end date should be left blank", "core": "R/C", "definition": "Indication the concomitant medication/treatment/therapy is ongoing when no end date is provided.", "implementationNotes": "This box should be checked to indicate that the concomitant medication/treatment has not stopped at the time of data collection. It is expected that every recorded medication/treatment should have either an End Date or be checked as Ongoing, but not both. However, in cases where ongoing concomitant medications/treatments are not permitted, it may not be necessary to include an Ongoing field in the CRF. See Section 3.7, Mapping Relative Times from Collection to Submission, for more information about collecting relative date/time; see SDTMIG v3.2 Section 4.1.4 for information about mapping relative times.", "label": "Ongoing Concomitant Meds", "mappingInstructions": "This does not map directly to an SDTM variable. May be used to populate a value into an SDTMIG relative timing variable such as CMENRF or CMENRTPT. When populating CMENRF, if the value of CMONGO is \"Y\", the value of \"DURING\", \"AFTER\" or \"DURING/AFTER\" may be used. When populating CMENRTPT, if the value of CMONGO is \"Y\", the value of \"ONGOING\" may be used. When CMONGO refers to the Study Reference Period (defined in DM.RFSTDTC to DM.RFENDTC) the SDTM variable CMENRF should be populated. When CMONGO is used in conjunction with another time point, the SDTM variables CMENRTPT and CMENTPT should be used. \n Note: CMENRTPT must refer to a time point anchor described in CMENTPT.", "name": "CMONGO", "ordinal": "25", "prompt": "Ongoing (as of [the study-specific time point or period])", "questionText": "Was the (concomitant) [medication/treatment/therapy] ongoing (as of [the study-specific time point or period])?", "simpleDatatype": "Char"}, {"_links": {"implements": {"href": "/mdr/cdash/1-1/classes/Timing/fields/--ENDAT", "title": "Observation End Date", "type": "Class Variable"}, "parentDomain": {"href": "/mdr/cdashig/2-1/domains/CM", "title": "Concomitant Medications", "type": "CDASH Domain"}, "parentProduct": {"href": "/mdr/cdashig/2-1", "title": "Clinical Data Acquisition Standards Harmonization Implementation Guide for Human Clinical Trials Version 2.1", "type": "Implementation Guide"}, "priorVersion": {"href": "/mdr/cdashig/2-0/domains/CM/fields/CMENDAT", "title": "Concomitant Meds End Date", "type": "Data Collection Field"}, "rootItem": {"href": "/mdr/root/cdashig/domains/CM/fields/CMENDAT", "title": "Version-agnostic anchor element for field CM.CMENDAT", "type": "Root Data Element"}, "sdtmigDatasetMappingTargets": [{"href": "/mdr/sdtmig/3-2/datasets/CM/variables/CMENDTC", "title": "End Date/Time of Medication", "type": "SDTM Dataset Variable"}], "self": {"href": "/mdr/cdashig/2-1/domains/CM/fields/CMENDAT", "title": "Concomitant Meds End Date", "type": "Data Collection Field"}}, "completionInstructions": "Record the date the concomitant [medication/treatment] was stopped using this format (DD-MON-YYYY). If the subject has not stopped taking the concomitant [medication/treatment] leave this field blank.", "core": "R/C", "definition": "The date that the subject ended/stopped taking the concomitant medication/treatment/therapy represented in an unambiguous date format (e.g., DD-MON-YYYY).", "implementationNotes": "The assumption is that sponsors should either have an End Date or will indicate that the medication or therapy was ongoing at the time of collection or at the end of the study. However, in cases where the End Date can be determined from dates collected elsewhere in the CRF it is not necessary to include an End Date in the CRF. For example, if all concomitant medications/treatments are administered only once during a trial, the End Date will be the same as the Start Date.", "label": "Concomitant Meds End Date", "mappingInstructions": "This does not map directly to an SDTMIG variable. For the SDTM submission dataset, concatenate all collected CDASH END DATE and TIME components and populate the SDTMIG variable CMENDTC in ISO 8601 format.", "name": "CMENDAT", "ordinal": "26", "prompt": "End Date", "questionText": "What was the (concomitant) [medication/treatment/therapy/dose] end date?", "simpleDatatype": "Char"}, {"_links": {"implements": {"href": "/mdr/cdash/1-1/classes/Timing/fields/--ENTIM", "title": "Observation End Time", "type": "Class Variable"}, "parentDomain": {"href": "/mdr/cdashig/2-1/domains/CM", "title": "Concomitant Medications", "type": "CDASH Domain"}, "parentProduct": {"href": "/mdr/cdashig/2-1", "title": "Clinical Data Acquisition Standards Harmonization Implementation Guide for Human Clinical Trials Version 2.1", "type": "Implementation Guide"}, "priorVersion": {"href": "/mdr/cdashig/2-0/domains/CM/fields/CMENTIM", "title": "Concomitant Meds End Time", "type": "Data Collection Field"}, "rootItem": {"href": "/mdr/root/cdashig/domains/CM/fields/CMENTIM", "title": "Version-agnostic anchor element for field CM.CMENTIM", "type": "Root Data Element"}, "sdtmigDatasetMappingTargets": [{"href": "/mdr/sdtmig/3-2/datasets/CM/variables/CMENDTC", "title": "End Date/Time of Medication", "type": "SDTM Dataset Variable"}], "self": {"href": "/mdr/cdashig/2-1/domains/CM/fields/CMENTIM", "title": "Concomitant Meds End Time", "type": "Data Collection Field"}}, "completionInstructions": "Record the time (as complete as possible) that the concomitant medication/treatment was stopped.", "core": "R/C", "definition": "The time when the subject ended/stopped taking the concomitant medication/treatment/therapy represented in an unambiguous time format (e.g., hh:mm:ss).", "implementationNotes": "Recommend collecting the time a concomitant medication or treatment was ended only when a protocol or data collection scenarios require it or the subject records the start time in a diary. Typically, an end time is not collected unless the subject is under the direct care of the site at the time a concomitant medication/treatment is stopped.", "label": "Concomitant Meds End Time", "mappingInstructions": "This does not map directly to an SDTMIG variable. For the SDTM submission dataset, concatenate all collected CDASH END DATE and TIME components and populate the SDTMIG variable CMENDTC in ISO 8601 format.", "name": "CMENTIM", "ordinal": "27", "prompt": "End Time", "questionText": "What was the [medication/treatment/therapy/dose] end time?", "simpleDatatype": "Char"}, {"_links": {"implements": {"href": "/mdr/cdash/1-1/classes/Interventions/fields/--DECOD", "title": "Standardized Treatment Name", "type": "Class Variable"}, "parentDomain": {"href": "/mdr/cdashig/2-1/domains/CM", "title": "Concomitant Medications", "type": "CDASH Domain"}, "parentProduct": {"href": "/mdr/cdashig/2-1", "title": "Clinical Data Acquisition Standards Harmonization Implementation Guide for Human Clinical Trials Version 2.1", "type": "Implementation Guide"}, "priorVersion": {"href": "/mdr/cdashig/2-0/domains/CM/fields/CMDECOD", "title": "Concomitant Meds Dictionary or Standardized Term", "type": "Data Collection Field"}, "rootItem": {"href": "/mdr/root/cdashig/domains/CM/fields/CMDECOD", "title": "Version-agnostic anchor element for field CM.CMDECOD", "type": "Root Data Element"}, "sdtmigDatasetMappingTargets": [{"href": "/mdr/sdtmig/3-2/datasets/CM/variables/CMDECOD", "title": "Standardized Medication Name", "type": "SDTM Dataset Variable"}], "self": {"href": "/mdr/cdashig/2-1/domains/CM/fields/CMDECOD", "title": "Standardized Medication Name", "type": "Data Collection Field"}}, "core": "O", "definition": "The dictionary- or sponsor-defined standardized text description of the topic variable, CMTRT, or the modified topic variable (CMMODIFY), if applicable.", "implementationNotes": "This field does not typically appear on the CRF. Sponsors will populate this through the coding process. Equivalent to the generic drug name in WHODrug, or a term in SNOMED, ICD9, or other published or sponsor-defined dictionaries.", "label": "Standardized Medication Name", "mappingInstructions": "Maps directly to the SDTMIG variable listed in the column with the heading \"SDTMIG Target\".", "name": "CMDECOD", "ordinal": "28", "simpleDatatype": "Char"}, {"_links": {"implements": {"href": "/mdr/cdash/1-1/classes/Interventions/fields/--CLAS", "title": "Class", "type": "Class Variable"}, "parentDomain": {"href": "/mdr/cdashig/2-1/domains/CM", "title": "Concomitant Medications", "type": "CDASH Domain"}, "parentProduct": {"href": "/mdr/cdashig/2-1", "title": "Clinical Data Acquisition Standards Harmonization Implementation Guide for Human Clinical Trials Version 2.1", "type": "Implementation Guide"}, "priorVersion": {"href": "/mdr/cdashig/2-0/domains/CM/fields/CMCLAS", "title": "Concomitant Meds Class Description", "type": "Data Collection Field"}, "rootItem": {"href": "/mdr/root/cdashig/domains/CM/fields/CMCLAS", "title": "Version-agnostic anchor element for field CM.CMCLAS", "type": "Root Data Element"}, "sdtmigDatasetMappingTargets": [{"href": "/mdr/sdtmig/3-2/datasets/CM/variables/CMCLAS", "title": "Medication Class", "type": "SDTM Dataset Variable"}], "self": {"href": "/mdr/cdashig/2-1/domains/CM/fields/CMCLAS", "title": "CM Medication Class", "type": "Data Collection Field"}}, "core": "O", "definition": "The class for the intervention, often obtained from a coding dictionary.", "implementationNotes": "This field does not typically appear on the CRF. Sponsors will populate this through the coding process. This would generally be the class used for analysis.", "label": "CM Medication Class", "mappingInstructions": "Maps directly to the SDTMIG variable listed in the column with the heading \"SDTMIG Target\".", "name": "CMCLAS", "ordinal": "29", "simpleDatatype": "Char"}, {"_links": {"implements": {"href": "/mdr/cdash/1-1/classes/Interventions/fields/--CLASCD", "title": "Class Code", "type": "Class Variable"}, "parentDomain": {"href": "/mdr/cdashig/2-1/domains/CM", "title": "Concomitant Medications", "type": "CDASH Domain"}, "parentProduct": {"href": "/mdr/cdashig/2-1", "title": "Clinical Data Acquisition Standards Harmonization Implementation Guide for Human Clinical Trials Version 2.1", "type": "Implementation Guide"}, "priorVersion": {"href": "/mdr/cdashig/2-0/domains/CM/fields/CMCLASCD", "title": "Concomitant Meds Class Code", "type": "Data Collection Field"}, "rootItem": {"href": "/mdr/root/cdashig/domains/CM/fields/CMCLASCD", "title": "Version-agnostic anchor element for field CM.CMCLASCD", "type": "Root Data Element"}, "sdtmigDatasetMappingTargets": [{"href": "/mdr/sdtmig/3-2/datasets/CM/variables/CMCLASCD", "title": "Medication Class Code", "type": "SDTM Dataset Variable"}], "self": {"href": "/mdr/cdashig/2-1/domains/CM/fields/CMCLASCD", "title": "CM Medication Class Code", "type": "Data Collection Field"}}, "core": "O", "definition": "The assigned dictionary code for the class for the intervention.", "implementationNotes": "This field does not typically appear on the CRF. Sponsors will populate this through the coding process. This would generally be the class code used for analysis.", "label": "CM Medication Class Code", "mappingInstructions": "Maps directly to the SDTMIG variable listed in the column with the heading \"SDTMIG Target\".", "name": "CMCLASCD", "ordinal": "30", "simpleDatatype": "Num"}, {"_links": {"implements": {"href": "/mdr/cdash/1-1/classes/Interventions/fields/--ATC1", "title": "ATC Level 1 Description", "type": "Class Variable"}, "parentDomain": {"href": "/mdr/cdashig/2-1/domains/CM", "title": "Concomitant Medications", "type": "CDASH Domain"}, "parentProduct": {"href": "/mdr/cdashig/2-1", "title": "Clinical Data Acquisition Standards Harmonization Implementation Guide for Human Clinical Trials Version 2.1", "type": "Implementation Guide"}, "priorVersion": {"href": "/mdr/cdashig/2-0/domains/CM/fields/CMATC1", "title": "ATC Level 1 Description", "type": "Data Collection Field"}, "rootItem": {"href": "/mdr/root/cdashig/domains/CM/fields/CMATC1", "title": "Version-agnostic anchor element for field CM.CMATC1", "type": "Root Data Element"}, "sdtmigDatasetMappingTargets": [{"href": "/mdr/sdtmig/3-2/datasets/SUPPQUAL/variables/QVAL", "title": "Data Value", "type": "SDTM Dataset Variable"}], "self": {"href": "/mdr/cdashig/2-1/domains/CM/fields/CMATC1", "title": "ATC Level 1 Description", "type": "Data Collection Field"}}, "core": "O", "definition": "Dictionary text description of the first level of hierarchy within the Anatomical Therapeutic Chemical Classification System. Indicates the anatomical main group.", "implementationNotes": "This field does not typically appear on the CRF. This is populated through the sponsor's coding process.", "label": "ATC Level 1 Description", "mappingInstructions": "This does not map directly to an SDTMIG variable. This information could be submitted in a SUPPCM dataset as the value of SUPPCM.QVAL where SUPPCM.QNAM=\"CMATC1\" and SUPPCM.QLABEL=\"ATC Level 1 Description\". Sponsors should include an Origin column in the SUPPQ dataset to indicate that the data was \"ASSIGNED\". Refer to the current SDTM and SDTMIG for instructions on placement of non-standard variables in SDTM domains.", "name": "CMATC1", "ordinal": "31", "simpleDatatype": "Char"}, {"_links": {"implements": {"href": "/mdr/cdash/1-1/classes/Interventions/fields/--ATC1CD", "title": "ATC Level 1 Code", "type": "Class Variable"}, "parentDomain": {"href": "/mdr/cdashig/2-1/domains/CM", "title": "Concomitant Medications", "type": "CDASH Domain"}, "parentProduct": {"href": "/mdr/cdashig/2-1", "title": "Clinical Data Acquisition Standards Harmonization Implementation Guide for Human Clinical Trials Version 2.1", "type": "Implementation Guide"}, "priorVersion": {"href": "/mdr/cdashig/2-0/domains/CM/fields/CMATC1CD", "title": "ATC Level 1 Code", "type": "Data Collection Field"}, "rootItem": {"href": "/mdr/root/cdashig/domains/CM/fields/CMATC1CD", "title": "Version-agnostic anchor element for field CM.CMATC1CD", "type": "Root Data Element"}, "sdtmigDatasetMappingTargets": [{"href": "/mdr/sdtmig/3-2/datasets/SUPPQUAL/variables/QVAL", "title": "Data Value", "type": "SDTM Dataset Variable"}], "self": {"href": "/mdr/cdashig/2-1/domains/CM/fields/CMATC1CD", "title": "ATC Level 1 Code", "type": "Data Collection Field"}}, "core": "O", "definition": "Dictionary code denoting the first level of hierarchy within the Anatomical Therapeutic Chemical Classification System. Indicates the anatomical main group.", "implementationNotes": "This field does not typically appear on the CRF. This is populated through the sponsor's coding process.", "label": "ATC Level 1 Code", "mappingInstructions": "This does not map directly to an SDTMIG variable. This information could be submitted in a SUPPCM dataset as the value of SUPPCM.QVAL where SUPPCM.QNAM =\"MATC1CD\" and SUPPCM.QLABEL=\"ATC Level 1 Code\". Sponsors should include an Origin column in the SUPPQ dataset to indicate that the data was \"ASSIGNED\".", "name": "CMATC1CD", "ordinal": "32", "simpleDatatype": "Num"}, {"_links": {"implements": {"href": "/mdr/cdash/1-1/classes/Interventions/fields/--ATC2", "title": "ATC Level 2 Description", "type": "Class Variable"}, "parentDomain": {"href": "/mdr/cdashig/2-1/domains/CM", "title": "Concomitant Medications", "type": "CDASH Domain"}, "parentProduct": {"href": "/mdr/cdashig/2-1", "title": "Clinical Data Acquisition Standards Harmonization Implementation Guide for Human Clinical Trials Version 2.1", "type": "Implementation Guide"}, "priorVersion": {"href": "/mdr/cdashig/2-0/domains/CM/fields/CMATC2", "title": "ATC Level 2 Description", "type": "Data Collection Field"}, "rootItem": {"href": "/mdr/root/cdashig/domains/CM/fields/CMATC2", "title": "Version-agnostic anchor element for field CM.CMATC2", "type": "Root Data Element"}, "sdtmigDatasetMappingTargets": [{"href": "/mdr/sdtmig/3-2/datasets/SUPPQUAL/variables/QVAL", "title": "Data Value", "type": "SDTM Dataset Variable"}], "self": {"href": "/mdr/cdashig/2-1/domains/CM/fields/CMATC2", "title": "ATC Level 2 Description", "type": "Data Collection Field"}}, "core": "O", "definition": "Dictionary text description for the second level of hierarchy within the Anatomical Therapeutic Chemical Classification System. Indicates the therapeutic main group.", "implementationNotes": "This field does not typically appear on the CRF. This is populated through the sponsor's coding process.", "label": "ATC Level 2 Description", "mappingInstructions": "This does not map directly to an SDTMIG variable. This information could be submitted in a SUPPCM dataset as the value of SUPPCM.QVAL where SUPPCM.QNAM=\"CMATC2\" and SUPPCM.QLABEL=\"ATC Level 2 Description\". Sponsors should include an Origin column in the SUPPQ dataset to indicate that the data was \"ASSIGNED\". Refer to the current SDTM and SDTMIG for instructions on placement of non-standard variables in SDTM domains.", "name": "CMATC2", "ordinal": "33", "simpleDatatype": "Char"}, {"_links": {"implements": {"href": "/mdr/cdash/1-1/classes/Interventions/fields/--ATC2CD", "title": "ATC Level 2 Code", "type": "Class Variable"}, "parentDomain": {"href": "/mdr/cdashig/2-1/domains/CM", "title": "Concomitant Medications", "type": "CDASH Domain"}, "parentProduct": {"href": "/mdr/cdashig/2-1", "title": "Clinical Data Acquisition Standards Harmonization Implementation Guide for Human Clinical Trials Version 2.1", "type": "Implementation Guide"}, "priorVersion": {"href": "/mdr/cdashig/2-0/domains/CM/fields/CMATC2CD", "title": "ATC Level 2 Code", "type": "Data Collection Field"}, "rootItem": {"href": "/mdr/root/cdashig/domains/CM/fields/CMATC2CD", "title": "Version-agnostic anchor element for field CM.CMATC2CD", "type": "Root Data Element"}, "sdtmigDatasetMappingTargets": [{"href": "/mdr/sdtmig/3-2/datasets/SUPPQUAL/variables/QVAL", "title": "Data Value", "type": "SDTM Dataset Variable"}], "self": {"href": "/mdr/cdashig/2-1/domains/CM/fields/CMATC2CD", "title": "ATC Level 2 Code", "type": "Data Collection Field"}}, "core": "O", "definition": "Dictionary code denoting the second level of hierarchy within the Anatomical Therapeutic Chemical Classification System. Indicates the therapeutic main group.", "implementationNotes": "This field does not typically appear on the CRF. This is populated through the sponsor's coding process.", "label": "ATC Level 2 Code", "mappingInstructions": "This does not map directly to an SDTMIG variable. This information could be submitted in a SUPPCM dataset as the value of SUPPCM.QVAL where SUPPCM.QNAM=\"CMATC2CD\" and SUPPCM.QLABEL=\"ATC Level 2 Code\". Sponsors should include an Origin column in the SUPPQ dataset to indicate that the data was \"ASSIGNED\".", "name": "CMATC2CD", "ordinal": "34", "simpleDatatype": "Num"}, {"_links": {"implements": {"href": "/mdr/cdash/1-1/classes/Interventions/fields/--ATC3", "title": "ATC Level 3 Description", "type": "Class Variable"}, "parentDomain": {"href": "/mdr/cdashig/2-1/domains/CM", "title": "Concomitant Medications", "type": "CDASH Domain"}, "parentProduct": {"href": "/mdr/cdashig/2-1", "title": "Clinical Data Acquisition Standards Harmonization Implementation Guide for Human Clinical Trials Version 2.1", "type": "Implementation Guide"}, "priorVersion": {"href": "/mdr/cdashig/2-0/domains/CM/fields/CMATC3", "title": "ATC Level 3 Description", "type": "Data Collection Field"}, "rootItem": {"href": "/mdr/root/cdashig/domains/CM/fields/CMATC3", "title": "Version-agnostic anchor element for field CM.CMATC3", "type": "Root Data Element"}, "sdtmigDatasetMappingTargets": [{"href": "/mdr/sdtmig/3-2/datasets/SUPPQUAL/variables/QVAL", "title": "Data Value", "type": "SDTM Dataset Variable"}], "self": {"href": "/mdr/cdashig/2-1/domains/CM/fields/CMATC3", "title": "ATC Level 3 Description", "type": "Data Collection Field"}}, "core": "O", "definition": "Dictionary text description of the third level of hierarchy within the Anatomical Therapeutic Chemical Classification System. Indicates the therapeutic/pharmacological subgroup.", "implementationNotes": "This field does not typically appear on the CRF. This is populated through the sponsor's coding process.", "label": "ATC Level 3 Description", "mappingInstructions": "This does not map directly to an SDTMIG variable. This information could be submitted in a SUPPCM dataset as the value of SUPPCM.QVAL where SUPPCM.QNAM=\"CMATC3\" and SUPPCM.QLABEL=\"ATC Level 3 Description\". Sponsors should include an Origin column in the SUPPQ dataset to indicate that the data was \"ASSIGNED\". Refer to the current SDTM and SDTMIG for instructions on placement of non-standard variables in SDTM domains.", "name": "CMATC3", "ordinal": "35", "simpleDatatype": "Char"}, {"_links": {"implements": {"href": "/mdr/cdash/1-1/classes/Interventions/fields/--ATC3CD", "title": "ATC Level 3 Code", "type": "Class Variable"}, "parentDomain": {"href": "/mdr/cdashig/2-1/domains/CM", "title": "Concomitant Medications", "type": "CDASH Domain"}, "parentProduct": {"href": "/mdr/cdashig/2-1", "title": "Clinical Data Acquisition Standards Harmonization Implementation Guide for Human Clinical Trials Version 2.1", "type": "Implementation Guide"}, "priorVersion": {"href": "/mdr/cdashig/2-0/domains/CM/fields/CMATC3CD", "title": "ATC Level 3 Code", "type": "Data Collection Field"}, "rootItem": {"href": "/mdr/root/cdashig/domains/CM/fields/CMATC3CD", "title": "Version-agnostic anchor element for field CM.CMATC3CD", "type": "Root Data Element"}, "sdtmigDatasetMappingTargets": [{"href": "/mdr/sdtmig/3-2/datasets/SUPPQUAL/variables/QVAL", "title": "Data Value", "type": "SDTM Dataset Variable"}], "self": {"href": "/mdr/cdashig/2-1/domains/CM/fields/CMATC3CD", "title": "ATC Level 3 Code", "type": "Data Collection Field"}}, "core": "O", "definition": "Dictionary code denoting the third level of hierarchy within the Anatomical Therapeutic Chemical Classification System. Indicates the therapeutic/pharmacological subgroup.", "implementationNotes": "This field does not typically appear on the CRF. This is populated through the sponsor's coding process.", "label": "ATC Level 3 Code", "mappingInstructions": "This does not map directly to an SDTMIG variable. This information could be submitted in a SUPPCM dataset as the value of SUPPCM.QVAL where SUPPCM.QNAM=\"CMATC3CD\" and SUPPCM.QLABEL=\"ATC Level 3 Code\". Sponsors should include an Origin column in the SUPPQ dataset to indicate that the data was \"ASSIGNED\".", "name": "CMATC3CD", "ordinal": "36", "simpleDatatype": "Num"}, {"_links": {"implements": {"href": "/mdr/cdash/1-1/classes/Interventions/fields/--ATC4", "title": "ATC Level 4 Description", "type": "Class Variable"}, "parentDomain": {"href": "/mdr/cdashig/2-1/domains/CM", "title": "Concomitant Medications", "type": "CDASH Domain"}, "parentProduct": {"href": "/mdr/cdashig/2-1", "title": "Clinical Data Acquisition Standards Harmonization Implementation Guide for Human Clinical Trials Version 2.1", "type": "Implementation Guide"}, "priorVersion": {"href": "/mdr/cdashig/2-0/domains/CM/fields/CMATC4", "title": "ATC Level 4 Description", "type": "Data Collection Field"}, "rootItem": {"href": "/mdr/root/cdashig/domains/CM/fields/CMATC4", "title": "Version-agnostic anchor element for field CM.CMATC4", "type": "Root Data Element"}, "sdtmigDatasetMappingTargets": [{"href": "/mdr/sdtmig/3-2/datasets/SUPPQUAL/variables/QVAL", "title": "Data Value", "type": "SDTM Dataset Variable"}], "self": {"href": "/mdr/cdashig/2-1/domains/CM/fields/CMATC4", "title": "ATC Level 4 Description", "type": "Data Collection Field"}}, "core": "O", "definition": "Dictionary text description of the fourth level of hierarchy within the Anatomical Therapeutic Chemical Classification System. Indicates the chemical/therapeutic/pharmacological subgroup.", "implementationNotes": "This field does not typically appear on the CRF. This is populated through the sponsor's coding process.", "label": "ATC Level 4 Description", "mappingInstructions": "This does not map directly to an SDTMIG variable. This information could be submitted in a SUPPCM dataset as the value of SUPPCM.QVAL where SUPPCM.QNAM=\"CMATC4\" and SUPPCM.QLABEL=\"ATC Level 4 Description\". Sponsors should include an Origin column in the SUPPQ dataset to indicate that the data was \"ASSIGNED\". Refer to the current SDTM and SDTMIG for instructions on placement of non-standard variables in SDTM domains.", "name": "CMATC4", "ordinal": "37", "simpleDatatype": "Char"}, {"_links": {"implements": {"href": "/mdr/cdash/1-1/classes/Interventions/fields/--ATC4CD", "title": "ATC Level 4 Code", "type": "Class Variable"}, "parentDomain": {"href": "/mdr/cdashig/2-1/domains/CM", "title": "Concomitant Medications", "type": "CDASH Domain"}, "parentProduct": {"href": "/mdr/cdashig/2-1", "title": "Clinical Data Acquisition Standards Harmonization Implementation Guide for Human Clinical Trials Version 2.1", "type": "Implementation Guide"}, "priorVersion": {"href": "/mdr/cdashig/2-0/domains/CM/fields/CMATC4CD", "title": "ATC Level 4 Code", "type": "Data Collection Field"}, "rootItem": {"href": "/mdr/root/cdashig/domains/CM/fields/CMATC4CD", "title": "Version-agnostic anchor element for field CM.CMATC4CD", "type": "Root Data Element"}, "sdtmigDatasetMappingTargets": [{"href": "/mdr/sdtmig/3-2/datasets/SUPPQUAL/variables/QVAL", "title": "Data Value", "type": "SDTM Dataset Variable"}], "self": {"href": "/mdr/cdashig/2-1/domains/CM/fields/CMATC4CD", "title": "ATC Level 4 Code", "type": "Data Collection Field"}}, "core": "O", "definition": "Dictionary code denoting the fourth level of hierarchy within the Anatomical Therapeutic Chemical Classification System. Indicates the chemical/therapeutic/pharmacological subgroup.", "implementationNotes": "This field does not typically appear on the CRF. This is populated through the sponsor's coding process.", "label": "ATC Level 4 Code", "mappingInstructions": "This does not map directly to an SDTMIG variable. This information could be submitted in a SUPPCM dataset as the value of SUPPCM.QVAL where SUPPCM.QNAM=\"CMATC4CD\" and SUPPCM.QLABEL=\"ATC Level 4 Code\". Sponsors should include an Origin column in the SUPPQ dataset to indicate that the data was \"ASSIGNED\".", "name": "CMATC4CD", "ordinal": "38", "simpleDatatype": "Num"}, {"_links": {"implements": {"href": "/mdr/cdash/1-1/classes/Interventions/fields/--ATC5", "title": "ATC Level 5 Description", "type": "Class Variable"}, "parentDomain": {"href": "/mdr/cdashig/2-1/domains/CM", "title": "Concomitant Medications", "type": "CDASH Domain"}, "parentProduct": {"href": "/mdr/cdashig/2-1", "title": "Clinical Data Acquisition Standards Harmonization Implementation Guide for Human Clinical Trials Version 2.1", "type": "Implementation Guide"}, "priorVersion": {"href": "/mdr/cdashig/2-0/domains/CM/fields/CMATC5", "title": "ATC Level 5 Description", "type": "Data Collection Field"}, "rootItem": {"href": "/mdr/root/cdashig/domains/CM/fields/CMATC5", "title": "Version-agnostic anchor element for field CM.CMATC5", "type": "Root Data Element"}, "sdtmigDatasetMappingTargets": [{"href": "/mdr/sdtmig/3-2/datasets/SUPPQUAL/variables/QVAL", "title": "Data Value", "type": "SDTM Dataset Variable"}], "self": {"href": "/mdr/cdashig/2-1/domains/CM/fields/CMATC5", "title": "ATC Level 5 Description", "type": "Data Collection Field"}}, "core": "O", "definition": "Dictionary text description of the fifth level of hierarchy within the Anatomical Therapeutic Chemical Classification system. Indicates the chemical substance.", "implementationNotes": "This field does not typically appear on the CRF. This is populated through the sponsor's coding process.", "label": "ATC Level 5 Description", "mappingInstructions": "This does not map directly to an SDTMIG variable. This information could be submitted in a SUPPCM dataset as the value of SUPPCM.QVAL where SUPPCM.QNAM=\"CMATC5\" and SUPPCM.QLABEL=\"ATC Level 5 Description\". Sponsors should include an Origin column in the SUPPQ dataset to indicate that the data was \"ASSIGNED\". Refer to the current SDTM and SDTMIG for instructions on placement of non-standard variables in SDTM domains.", "name": "CMATC5", "ordinal": "39", "simpleDatatype": "Char"}, {"_links": {"implements": {"href": "/mdr/cdash/1-1/classes/Interventions/fields/--ATC5CD", "title": "ATC Level 5 Code", "type": "Class Variable"}, "parentDomain": {"href": "/mdr/cdashig/2-1/domains/CM", "title": "Concomitant Medications", "type": "CDASH Domain"}, "parentProduct": {"href": "/mdr/cdashig/2-1", "title": "Clinical Data Acquisition Standards Harmonization Implementation Guide for Human Clinical Trials Version 2.1", "type": "Implementation Guide"}, "priorVersion": {"href": "/mdr/cdashig/2-0/domains/CM/fields/CMATC5CD", "title": "ATC Level 5 Code", "type": "Data Collection Field"}, "rootItem": {"href": "/mdr/root/cdashig/domains/CM/fields/CMATC5CD", "title": "Version-agnostic anchor element for field CM.CMATC5CD", "type": "Root Data Element"}, "sdtmigDatasetMappingTargets": [{"href": "/mdr/sdtmig/3-2/datasets/SUPPQUAL/variables/QVAL", "title": "Data Value", "type": "SDTM Dataset Variable"}], "self": {"href": "/mdr/cdashig/2-1/domains/CM/fields/CMATC5CD", "title": "ATC Level 5 Code", "type": "Data Collection Field"}}, "core": "O", "definition": "Dictionary code denoting the fifth level of hierarchy within the Anatomical Therapeutic Chemical Classification system. Indicates the chemical substance.", "implementationNotes": "This field does not typically appear on the CRF. This is populated through the sponsor's coding process.", "label": "ATC Level 5 Code", "mappingInstructions": "This does not map directly to an SDTMIG variable. This information could be submitted in a SUPPCM dataset as the value of SUPPCM.QVAL where SUPPCM.QNAM=\"CMATC5CD\" and SUPPCM.QLABEL=\"ATC Level 5 Code\". Sponsors should include an Origin column in the SUPPQ dataset to indicate that the data was \"ASSIGNED\".", "name": "CMATC5CD", "ordinal": "40", "simpleDatatype": "Num"}], "label": "Concomitant Medications", "name": "CM", "ordinal": "3"}, {"_links": {"parentClass": {"href": "/mdr/cdashig/2-1/classes/Interventions", "title": "Interventions", "type": "Class"}, "parentProduct": {"href": "/mdr/cdashig/2-1", "title": "Clinical Data Acquisition Standards Harmonization Implementation Guide for Human Clinical Trials Version 2.1", "type": "Implementation Guide"}, "priorVersion": {"href": "/mdr/cdashig/2-0/domains/EC", "title": "Exposure as Collected", "type": "CDASH Domain"}, "self": {"href": "/mdr/cdashig/2-1/domains/EC", "title": "Exposure as Collected", "type": "CDASH Domain"}}, "fields": [{"_links": {"implements": {"href": "/mdr/cdash/1-1/classes/Identifiers/fields/STUDYID", "title": "Study Identifier", "type": "Class Variable"}, "parentDomain": {"href": "/mdr/cdashig/2-1/domains/EC", "title": "Exposure as Collected", "type": "CDASH Domain"}, "parentProduct": {"href": "/mdr/cdashig/2-1", "title": "Clinical Data Acquisition Standards Harmonization Implementation Guide for Human Clinical Trials Version 2.1", "type": "Implementation Guide"}, "priorVersion": {"href": "/mdr/cdashig/2-0/domains/EC/fields/STUDYID", "title": "Study Identifier", "type": "Data Collection Field"}, "rootItem": {"href": "/mdr/root/cdashig/domains/EC/fields/STUDYID", "title": "Version-agnostic anchor element for field EC.STUDYID", "type": "Root Data Element"}, "sdtmigDatasetMappingTargets": [{"href": "/mdr/sdtmig/3-2/datasets/EC/variables/STUDYID", "title": "Study Identifier", "type": "SDTM Dataset Variable"}], "self": {"href": "/mdr/cdashig/2-1/domains/EC/fields/STUDYID", "title": "Study Identifier", "type": "Data Collection Field"}}, "core": "HR", "definition": "A unique identifier for a study.", "implementationNotes": "While this field is not typically captured on a CRF, it should be displayed clearly on the CRF and/or the EDC system. This field can be included into the database or populated during SDTM-based dataset creation before submission.", "label": "Study Identifier", "mappingInstructions": "Maps directly to the SDTMIG variable listed in the column with the heading SDTMIG Target.", "name": "STUDYID", "ordinal": "1", "prompt": "[Protocol/Study]", "questionText": "What is the study identifier?", "simpleDatatype": "Char"}, {"_links": {"implements": {"href": "/mdr/cdash/1-1/classes/Identifiers/fields/SITEID", "title": "Study Site Identifier", "type": "Class Variable"}, "parentDomain": {"href": "/mdr/cdashig/2-1/domains/EC", "title": "Exposure as Collected", "type": "CDASH Domain"}, "parentProduct": {"href": "/mdr/cdashig/2-1", "title": "Clinical Data Acquisition Standards Harmonization Implementation Guide for Human Clinical Trials Version 2.1", "type": "Implementation Guide"}, "priorVersion": {"href": "/mdr/cdashig/2-0/domains/EC/fields/SITEID", "title": "Study Site Identifier", "type": "Data Collection Field"}, "rootItem": {"href": "/mdr/root/cdashig/domains/EC/fields/SITEID", "title": "Version-agnostic anchor element for field EC.SITEID", "type": "Root Data Element"}, "sdtmigDatasetMappingTargets": [{"href": "/mdr/sdtmig/3-2/datasets/DM/variables/SITEID", "title": "Study Site Identifier", "type": "SDTM Dataset Variable"}], "self": {"href": "/mdr/cdashig/2-1/domains/EC/fields/SITEID", "title": "Study Site Identifier", "type": "Data Collection Field"}}, "core": "HR", "definition": "A unique identifier for a site within a study.", "implementationNotes": "Paper: This is typically preprinted in the header of each CRF page for single site studies. For studies with multiple sites, this field may be left blank so that the number can be recorded by the site, or it may be preprinted on the CRFs that are shipped to each site. EDC: This should be prepopulated.", "label": "Study Site Identifier", "mappingInstructions": "Maps directly to the SDTMIG variable listed in the column with the heading SDTMIG Target.", "name": "SITEID", "ordinal": "2", "prompt": "Site (Identifier)", "questionText": "What is the site identifier?", "simpleDatatype": "Char"}, {"_links": {"implements": {"href": "/mdr/cdash/1-1/classes/Identifiers/fields/SUBJID", "title": "Subject Identifier for the Study", "type": "Class Variable"}, "parentDomain": {"href": "/mdr/cdashig/2-1/domains/EC", "title": "Exposure as Collected", "type": "CDASH Domain"}, "parentProduct": {"href": "/mdr/cdashig/2-1", "title": "Clinical Data Acquisition Standards Harmonization Implementation Guide for Human Clinical Trials Version 2.1", "type": "Implementation Guide"}, "priorVersion": {"href": "/mdr/cdashig/2-0/domains/EC/fields/SUBJID", "title": "Subject Identifier for the Study", "type": "Data Collection Field"}, "rootItem": {"href": "/mdr/root/cdashig/domains/EC/fields/SUBJID", "title": "Version-agnostic anchor element for field EC.SUBJID", "type": "Root Data Element"}, "sdtmigDatasetMappingTargets": [{"href": "/mdr/sdtmig/3-2/datasets/DM/variables/SUBJID", "title": "Subject Identifier for the Study", "type": "SDTM Dataset Variable"}], "self": {"href": "/mdr/cdashig/2-1/domains/EC/fields/SUBJID", "title": "Subject Identifier for the Study", "type": "Data Collection Field"}}, "completionInstructions": "Record the identifier for the subject.", "core": "HR", "definition": "A unique subject identifier within a site and a study.", "implementationNotes": "Paper: This is typically recorded in the header of each CRF page. EDC: The subject identifiers may be system generated. This CDASH variable is typically collected in all CDASH domains. However, this CDASH variable is populated only in the SDTMIG DM domain. For more information, refer to the SDTM Implementation Guide.", "label": "Subject Identifier for the Study", "mappingInstructions": "Maps directly to the SDTMIG variable listed in the column with the heading SDTMIG Target.", "name": "SUBJID", "ordinal": "3", "prompt": "[Subject/Participant] (Identifier)", "questionText": "What [is/was] the (study) [subject/participant] identifier?", "simpleDatatype": "Char"}, {"_links": {"codelist": [{"href": "/mdr/root/ct/sdtmct/codelists/C99079", "title": "Version-agnostic anchor resource for codelist C99079", "type": "Root Value Domain"}], "implements": {"href": "/mdr/cdash/1-1/classes/Timing/fields/EPOCH", "title": "Epoch", "type": "Class Variable"}, "parentDomain": {"href": "/mdr/cdashig/2-1/domains/EC", "title": "Exposure as Collected", "type": "CDASH Domain"}, "parentProduct": {"href": "/mdr/cdashig/2-1", "title": "Clinical Data Acquisition Standards Harmonization Implementation Guide for Human Clinical Trials Version 2.1", "type": "Implementation Guide"}, "priorVersion": {"href": "/mdr/cdashig/2-0/domains/EC/fields/EPOCH", "title": "Epoch", "type": "Data Collection Field"}, "rootItem": {"href": "/mdr/root/cdashig/domains/EC/fields/EPOCH", "title": "Version-agnostic anchor element for field EC.EPOCH", "type": "Root Data Element"}, "sdtmigDatasetMappingTargets": [{"href": "/mdr/sdtmig/3-2/datasets/EC/variables/EPOCH", "title": "Epoch", "type": "SDTM Dataset Variable"}], "self": {"href": "/mdr/cdashig/2-1/domains/EC/fields/EPOCH", "title": "Epoch", "type": "Data Collection Field"}}, "completionInstructions": "[protocol specific]", "core": "R/C", "definition": "Name of the Trial Epoch with which this Element of the Arm is associated.", "implementationNotes": "If the same information is collected more than once in different periods/parts of a study (e.g., Disposition), EPOCH may be needed to differentiate them. Typically, the trial epoch will be preprinted on the CRF as the title of the page. See SDTMIG for further information regarding EPOCH.", "label": "Epoch", "mappingInstructions": "Maps directly to the SDTMIG variable listed in the column with the heading SDTMIG Target.", "name": "EPOCH", "ordinal": "4", "prompt": "[Epoch](Period/Phase/Sponsor-defined phrase)", "questionText": "What is the trial epoch?", "simpleDatatype": "Char"}, {"_links": {"codelist": [{"href": "/mdr/root/ct/sdtmct/codelists/C66742", "title": "Version-agnostic anchor resource for codelist C66742", "type": "Root Value Domain"}], "implements": {"href": "/mdr/cdash/1-1/classes/Interventions/fields/--YN", "title": "Any [Intervention]", "type": "Class Variable"}, "parentDomain": {"href": "/mdr/cdashig/2-1/domains/EC", "title": "Exposure as Collected", "type": "CDASH Domain"}, "parentProduct": {"href": "/mdr/cdashig/2-1", "title": "Clinical Data Acquisition Standards Harmonization Implementation Guide for Human Clinical Trials Version 2.1", "type": "Implementation Guide"}, "priorVersion": {"href": "/mdr/cdashig/2-0/domains/EC/fields/ECYN", "title": "Any Study Treatment Taken", "type": "Data Collection Field"}, "rootItem": {"href": "/mdr/root/cdashig/domains/EC/fields/ECYN", "title": "Version-agnostic anchor element for field EC.ECYN", "type": "Root Data Element"}, "self": {"href": "/mdr/cdashig/2-1/domains/EC/fields/ECYN", "title": "Any Study Treatment Taken", "type": "Data Collection Field"}}, "completionInstructions": "Indicate if the subject took any study medications. If Yes, include the appropriate details where indicated.", "core": "O", "definition": "An indication whether or not the subject took study medication/ treatment.", "implementationNotes": "The intent/purpose of collecting this field is to help with data cleaning and monitoring. It provides verification that all other fields on the CRF were deliberately left blank. The ECYN is meant to indicate that the exposure as collected form should be completed or inserted into the case book. ECOCCUR would be used when the actual drug name is preprinted on the CRF. While these might be equivalent in a single drug study, there are differences in how they would be used in most trials. Therefore, it does not map into the SDTM variable ECOCCUR, since ECOCCUR indicates whether the subject was actually administered treatment/medication. If actual treatment data is available (ECYN =\"Y\"), ECOCCUR may be populated based on whether subject was actually administered treatment/medication.", "label": "Any Study Treatment Taken", "mappingInstructions": "Does not map to an SDTMIG variable. The SDTM aCRF is annotated to indicate that this field is NOT SUBMITTED.", "name": "ECYN", "ordinal": "5", "prompt": "Any Study Treatments", "questionText": "Were any[study treatment/dose] taken?", "simpleDatatype": "Char"}, {"_links": {"implements": {"href": "/mdr/cdash/1-1/classes/Interventions/fields/--CAT", "title": "Category", "type": "Class Variable"}, "parentDomain": {"href": "/mdr/cdashig/2-1/domains/EC", "title": "Exposure as Collected", "type": "CDASH Domain"}, "parentProduct": {"href": "/mdr/cdashig/2-1", "title": "Clinical Data Acquisition Standards Harmonization Implementation Guide for Human Clinical Trials Version 2.1", "type": "Implementation Guide"}, "priorVersion": {"href": "/mdr/cdashig/2-0/domains/EC/fields/ECCAT", "title": "Category of Treatment", "type": "Data Collection Field"}, "rootItem": {"href": "/mdr/root/cdashig/domains/EC/fields/ECCAT", "title": "Version-agnostic anchor element for field EC.ECCAT", "type": "Root Data Element"}, "sdtmigDatasetMappingTargets": [{"href": "/mdr/sdtmig/3-2/datasets/EC/variables/ECCAT", "title": "Category of Treatment", "type": "SDTM Dataset Variable"}], "self": {"href": "/mdr/cdashig/2-1/domains/EC/fields/ECCAT", "title": "Category of Treatment", "type": "Data Collection Field"}}, "completionInstructions": "Record the study treatment category, if not pre-printed on the CRF.", "core": "O", "definition": "A grouping of topic-variable values based on user defined characteristics.", "implementationNotes": "Sponsor-defined controlled terminology. This would most commonly be either a heading or a preprinted category value on the CRF, and not a question to which the site would provide an answer. If a question is asked, the response would typically be a sponsor-defined codelist. If the form is laid out as a grid, then words such as \"Category\" can be included as the column header.", "label": "Category of Treatment", "mappingInstructions": "Maps directly to the SDTMIG variable listed in the column with the heading SDTMIG Target.", "name": "ECCAT", "ordinal": "6", "prompt": "[Study Treatment Category]; NULL", "questionText": "What is the category of the [study treatment/dose]?", "simpleDatatype": "Char"}, {"_links": {"implements": {"href": "/mdr/cdash/1-1/classes/Interventions/fields/--SCAT", "title": "Subcategory", "type": "Class Variable"}, "parentDomain": {"href": "/mdr/cdashig/2-1/domains/EC", "title": "Exposure as Collected", "type": "CDASH Domain"}, "parentProduct": {"href": "/mdr/cdashig/2-1", "title": "Clinical Data Acquisition Standards Harmonization Implementation Guide for Human Clinical Trials Version 2.1", "type": "Implementation Guide"}, "priorVersion": {"href": "/mdr/cdashig/2-0/domains/EC/fields/ECSCAT", "title": "Subcategory of Treatment", "type": "Data Collection Field"}, "rootItem": {"href": "/mdr/root/cdashig/domains/EC/fields/ECSCAT", "title": "Version-agnostic anchor element for field EC.ECSCAT", "type": "Root Data Element"}, "sdtmigDatasetMappingTargets": [{"href": "/mdr/sdtmig/3-2/datasets/EC/variables/ECSCAT", "title": "Subcategory of Treatment", "type": "SDTM Dataset Variable"}], "self": {"href": "/mdr/cdashig/2-1/domains/EC/fields/ECSCAT", "title": "Subcategory of Treatment", "type": "Data Collection Field"}}, "completionInstructions": "Record the study treatment subcategory, if not pre-printed on the CRF.", "core": "O", "definition": "A sub-division of the ECCAT values based on user-defined characteristics.", "implementationNotes": "Sponsor-defined controlled terminology. This would most commonly be preprinted on the CRF or screen and prepopulated in the data management system. This is not typically a question to which the site would provide an answer. ECSCAT can only be used if there is an ECCAT and it must be a subcategorization of ECCAT.", "label": "Subcategory of Treatment", "mappingInstructions": "Maps directly to the SDTMIG variable listed in the column with the heading SDTMIG Target.", "name": "ECSCAT", "ordinal": "7", "prompt": "[Study Treatment Subcategory]; NULL", "questionText": "What is the subcategory of the [study treatment/dose]?", "simpleDatatype": "Char"}, {"_links": {"implements": {"href": "/mdr/cdash/1-1/classes/Interventions/fields/--TRT", "title": "Name of Treatment", "type": "Class Variable"}, "parentDomain": {"href": "/mdr/cdashig/2-1/domains/EC", "title": "Exposure as Collected", "type": "CDASH Domain"}, "parentProduct": {"href": "/mdr/cdashig/2-1", "title": "Clinical Data Acquisition Standards Harmonization Implementation Guide for Human Clinical Trials Version 2.1", "type": "Implementation Guide"}, "priorVersion": {"href": "/mdr/cdashig/2-0/domains/EC/fields/ECTRT", "title": "Treatment Name", "type": "Data Collection Field"}, "rootItem": {"href": "/mdr/root/cdashig/domains/EC/fields/ECTRT", "title": "Version-agnostic anchor element for field EC.ECTRT", "type": "Root Data Element"}, "sdtmigDatasetMappingTargets": [{"href": "/mdr/sdtmig/3-2/datasets/EC/variables/ECTRT", "title": "Name of Treatment", "type": "SDTM Dataset Variable"}], "self": {"href": "/mdr/cdashig/2-1/domains/EC/fields/ECTRT", "title": "Treatment", "type": "Data Collection Field"}}, "completionInstructions": "Record the name of study treatment.", "core": "R/C", "definition": "Name of the intervention or treatment known to the subject and/or administrator.", "implementationNotes": "ECTRT is the name of the intervention or treatment known to the subject and/or administrator and it is the SDTM topic variable. It is a required variable in SDTM and must have a value in CDASH or a plan to populate it in the SDTM submission datasets (i.e., collected or populated from other sources). In a masked study, if treatment is collected and known as Tablet A to the subject or administrator, then ECTRT=\"TABLET A\". If in a masked study the treatment is not known by a synonym and the data are to be exchanged between sponsors, partners and/or regulatory agency(s), then assign ECTRT the value of \"MASKED\".", "label": "Treatment", "mappingInstructions": "Maps directly to the SDTMIG variable listed in the column with the heading SDTMIG Target.", "name": "ECTRT", "ordinal": "8", "prompt": "[Study Treatment/Investigational Product Name]", "questionText": "What was the [study treatment/investigational product] name?", "simpleDatatype": "Char"}, {"_links": {"codelist": [{"href": "/mdr/root/ct/sdtmct/codelists/C66742", "title": "Version-agnostic anchor resource for codelist C66742", "type": "Root Value Domain"}], "implements": {"href": "/mdr/cdash/1-1/classes/Interventions/fields/--PRESP", "title": "Pre-Specified Intervention", "type": "Class Variable"}, "parentDomain": {"href": "/mdr/cdashig/2-1/domains/EC", "title": "Exposure as Collected", "type": "CDASH Domain"}, "parentProduct": {"href": "/mdr/cdashig/2-1", "title": "Clinical Data Acquisition Standards Harmonization Implementation Guide for Human Clinical Trials Version 2.1", "type": "Implementation Guide"}, "rootItem": {"href": "/mdr/root/cdashig/domains/EC/fields/ECPRESP", "title": "Version-agnostic anchor element for field EC.ECPRESP", "type": "Root Data Element"}, "sdtmigDatasetMappingTargets": [{"href": "/mdr/sdtmig/3-2/datasets/EC/variables/ECPRESP", "title": "Pre-Specified", "type": "SDTM Dataset Variable"}], "self": {"href": "/mdr/cdashig/2-1/domains/EC/fields/ECPRESP", "title": "Exposure as Collected Pre-Specified", "type": "Data Collection Field"}}, "core": "O", "definition": "An indication that a specific intervention or a group of interventions is prespecified on a CRF.", "implementationNotes": "For prespecified interventions, a hidden field on a CRF defaulted to \"Y\", or added during the SDTM dataset creation. If a study collects both prespecified interventions as well as free-text interventions, the value of ECPRESP should be \"Y\" for all prespecified interventions and null for interventions reported as free-text.", "label": "Exposure as Collected Pre-Specified", "mappingInstructions": "Maps directly to the SDTMIG variable listed in the column with the heading SDTMIG Target.", "name": "ECPRESP", "ordinal": "9", "simpleDatatype": "Char"}, {"_links": {"codelist": [{"href": "/mdr/root/ct/sdtmct/codelists/C66742", "title": "Version-agnostic anchor resource for codelist C66742", "type": "Root Value Domain"}], "implements": {"href": "/mdr/cdash/1-1/classes/Interventions/fields/--OCCUR", "title": "Occurrence", "type": "Class Variable"}, "parentDomain": {"href": "/mdr/cdashig/2-1/domains/EC", "title": "Exposure as Collected", "type": "CDASH Domain"}, "parentProduct": {"href": "/mdr/cdashig/2-1", "title": "Clinical Data Acquisition Standards Harmonization Implementation Guide for Human Clinical Trials Version 2.1", "type": "Implementation Guide"}, "priorVersion": {"href": "/mdr/cdashig/2-0/domains/EC/fields/ECOCCUR", "title": "Exposure Occurrence", "type": "Data Collection Field"}, "rootItem": {"href": "/mdr/root/cdashig/domains/EC/fields/ECOCCUR", "title": "Version-agnostic anchor element for field EC.ECOCCUR", "type": "Root Data Element"}, "sdtmigDatasetMappingTargets": [{"href": "/mdr/sdtmig/3-2/datasets/EC/variables/ECOCCUR", "title": "Occurrence", "type": "SDTM Dataset Variable"}], "self": {"href": "/mdr/cdashig/2-1/domains/EC/fields/ECOCCUR", "title": "Exposure as Collected Occurrence", "type": "Data Collection Field"}}, "completionInstructions": "Indicate if the subject took study treatment. If Yes, include the appropriate details where indicated.", "core": "O", "definition": "An indication whether the study treatment was administered when information about the occurrence of a specific intervention is solicited.", "implementationNotes": "ECOCCUR is used to indicate whether the subject was actually administered treatment/medication. ECOCCUR should not be used to indicate that the question was not asked or answered.", "label": "Exposure as Collected Occurrence", "mappingInstructions": "Maps directly to the SDTMIG variable listed in the column with the heading SDTMIG Target. Not applicable when ECMOOD is \"Scheduled\".", "name": "ECOCCUR", "ordinal": "10", "prompt": "[Study Medication/Treatment]", "questionText": "Was [study treatment/dose] administered?; Has the subject taken [study treatment/dose]?", "simpleDatatype": "Char"}, {"_links": {"implements": {"href": "/mdr/cdash/1-1/classes/Interventions/fields/--REASOC", "title": "Reason for Occur Value", "type": "Class Variable"}, "parentDomain": {"href": "/mdr/cdashig/2-1/domains/EC", "title": "Exposure as Collected", "type": "CDASH Domain"}, "parentProduct": {"href": "/mdr/cdashig/2-1", "title": "Clinical Data Acquisition Standards Harmonization Implementation Guide for Human Clinical Trials Version 2.1", "type": "Implementation Guide"}, "priorVersion": {"href": "/mdr/cdashig/2-0/domains/EC/fields/ECREASOC", "title": "Exposure Reason for Occur Value", "type": "Data Collection Field"}, "rootItem": {"href": "/mdr/root/cdashig/domains/EC/fields/ECREASOC", "title": "Version-agnostic anchor element for field EC.ECREASOC", "type": "Root Data Element"}, "sdtmigDatasetMappingTargets": [{"href": "/mdr/sdtmig/3-2/datasets/SUPPQUAL/variables/QVAL", "title": "Data Value", "type": "SDTM Dataset Variable"}], "self": {"href": "/mdr/cdashig/2-1/domains/EC/fields/ECREASOC", "title": "Exposure Reason for Occur Value", "type": "Data Collection Field"}}, "completionInstructions": "Indicate why the study treatment was or wasnot taken.", "core": "O", "definition": "An explanation of why a scheduled study treatment administration did or did not occur.", "implementationNotes": "The reason the study treatment was or was not taken may be chosen from a sponsor-defined codelist (e.g., SUBJECT MISTAKE, SUBJECT REFUSED) or entered as free text. When --REASOC is used, --OCCUR must also be populated in the SDTM dataset with a value of \"Y\" or \"N\".", "label": "Exposure Reason for Occur Value", "mappingInstructions": "This information could be submitted in a SUPPEC dataset as the value of SUPPEC.QVAL where SUPPEC.QNAM=\"ECREASOC\" and SUPPEC.QLABEL =\"Reason for Occur Value\". Refer to the current SDTM and SDTMIG for instructions on placement of non-standard variables in SDTM domains.", "name": "ECREASOC", "ordinal": "11", "prompt": "Reason (Not) Taken", "questionText": "What was the reason that the[study treatment/dose] was (not)taken?", "simpleDatatype": "Char"}, {"_links": {"codelist": [{"href": "/mdr/root/ct/sdtmct/codelists/C125923", "title": "Version-agnostic anchor resource for codelist C125923", "type": "Root Value Domain"}], "implements": {"href": "/mdr/cdash/1-1/classes/Interventions/fields/--MOOD", "title": "Mood", "type": "Class Variable"}, "parentDomain": {"href": "/mdr/cdashig/2-1/domains/EC", "title": "Exposure as Collected", "type": "CDASH Domain"}, "parentProduct": {"href": "/mdr/cdashig/2-1", "title": "Clinical Data Acquisition Standards Harmonization Implementation Guide for Human Clinical Trials Version 2.1", "type": "Implementation Guide"}, "priorVersion": {"href": "/mdr/cdashig/2-0/domains/EC/fields/ECMOOD", "title": "Exposure Mood", "type": "Data Collection Field"}, "rootItem": {"href": "/mdr/root/cdashig/domains/EC/fields/ECMOOD", "title": "Version-agnostic anchor element for field EC.ECMOOD", "type": "Root Data Element"}, "sdtmigDatasetMappingTargets": [{"href": "/mdr/sdtmig/3-2/datasets/EC/variables/ECMOOD", "title": "Mood", "type": "SDTM Dataset Variable"}], "self": {"href": "/mdr/cdashig/2-1/domains/EC/fields/ECMOOD", "title": "Exposure as Collected Mood", "type": "Data Collection Field"}}, "completionInstructions": "Indicate if this record has happened or is intended to happen.", "core": "O", "definition": "Mode or condition of the record specifying whether the intervention (activity) is intended to happen or has happened.", "implementationNotes": "\"SCHEDULED\" is for collected subject-level intended dose records. \"PERFORMED\" is for collected subject-level actual dose records. \"Planned\" or \"Scheduled\" can be pre-printed as the CRF name or section header, as applicable. If collecting both the scheduled and performed dosing in the same horizontal record, the sponsor may choose to append \"_SCHEDULED\" to the ECDOSE/ECDOSTXT variable name to delineate the scheduled dose from the performed dose. The performed dose would just be collected with ECDOSE/ECDOSTXT and ECDOSU.", "label": "Exposure as Collected Mood", "mappingInstructions": "Maps directly to the SDTMIG variable listed in the column with the heading SDTMIG Target. When implemented ECMOOD must be populated for all records.", "name": "ECMOOD", "ordinal": "12", "prompt": "Scheduled/Performed", "questionText": "Does this record describe scheduled [study treatment/dose] or performed [study treatment/dose]?", "simpleDatatype": "Char"}, {"_links": {"implements": {"href": "/mdr/cdash/1-1/classes/Identifiers/fields/--REFID", "title": "Reference ID", "type": "Class Variable"}, "parentDomain": {"href": "/mdr/cdashig/2-1/domains/EC", "title": "Exposure as Collected", "type": "CDASH Domain"}, "parentProduct": {"href": "/mdr/cdashig/2-1", "title": "Clinical Data Acquisition Standards Harmonization Implementation Guide for Human Clinical Trials Version 2.1", "type": "Implementation Guide"}, "priorVersion": {"href": "/mdr/cdashig/2-0/domains/EC/fields/ECREFID", "title": "Exposure Reference ID", "type": "Data Collection Field"}, "rootItem": {"href": "/mdr/root/cdashig/domains/EC/fields/ECREFID", "title": "Version-agnostic anchor element for field EC.ECREFID", "type": "Root Data Element"}, "sdtmigDatasetMappingTargets": [{"href": "/mdr/sdtmig/3-2/datasets/EC/variables/ECREFID", "title": "Reference ID", "type": "SDTM Dataset Variable"}], "self": {"href": "/mdr/cdashig/2-1/domains/EC/fields/ECREFID", "title": "Exposure as Collected Reference ID", "type": "Data Collection Field"}}, "completionInstructions": "Record treatment label identifier.", "core": "O", "definition": "An internal or external identifier such as kit number, bottle label, or vial identifier.", "implementationNotes": "This packaging identifier (e.g., kit number, bottle label, vial identifier) may be collected in different ways (e.g., affixing label onto CRF, scanning a bar code). For some study dosing regimens, greater granularity for treatment identifiers may be needed. In this situation, sponsors may need to use additional variables.", "label": "Exposure as Collected Reference ID", "mappingInstructions": "Maps directly to the SDTMIG variable listed in the column with the heading SDTMIG Target.", "name": "ECREFID", "ordinal": "13", "prompt": "[Study Treatment] Label Identifier", "questionText": "What is the[study treatment/dose] label identifier?", "simpleDatatype": "Char"}, {"_links": {"implements": {"href": "/mdr/cdash/1-1/classes/Interventions/fields/--LOT", "title": "Lot Number", "type": "Class Variable"}, "parentDomain": {"href": "/mdr/cdashig/2-1/domains/EC", "title": "Exposure as Collected", "type": "CDASH Domain"}, "parentProduct": {"href": "/mdr/cdashig/2-1", "title": "Clinical Data Acquisition Standards Harmonization Implementation Guide for Human Clinical Trials Version 2.1", "type": "Implementation Guide"}, "priorVersion": {"href": "/mdr/cdashig/2-0/domains/EC/fields/ECLOT", "title": "Lot Number", "type": "Data Collection Field"}, "rootItem": {"href": "/mdr/root/cdashig/domains/EC/fields/ECLOT", "title": "Version-agnostic anchor element for field EC.ECLOT", "type": "Root Data Element"}, "sdtmigDatasetMappingTargets": [{"href": "/mdr/sdtmig/3-2/datasets/EC/variables/ECLOT", "title": "Lot Number", "type": "SDTM Dataset Variable"}], "self": {"href": "/mdr/cdashig/2-1/domains/EC/fields/ECLOT", "title": "Lot Number", "type": "Data Collection Field"}}, "completionInstructions": "Record the lot number that appears on the container holding the study treatment.", "core": "R/C", "definition": "Lot Number of the ECTRT product.", "implementationNotes": "The Lot Number identifies the manufacturing batch of the study treatment. In open-label studies, the reference number on the study treatment container may represent an actual Lot Number and should be submitted using ECLOT. This variable may be populated during the process of creating the SDTM submission datasets. Do not collect other identification variables in this field.", "label": "Lot Number", "mappingInstructions": "Maps directly to the SDTMIG variable listed in the column with the heading SDTMIG Target.", "name": "ECLOT", "ordinal": "14", "prompt": "Lot Number", "questionText": "What was the lot number of the[study treatment/dose] used?", "simpleDatatype": "Char"}, {"_links": {"codelist": [{"href": "/mdr/root/ct/sdtmct/codelists/C66742", "title": "Version-agnostic anchor resource for codelist C66742", "type": "Root Value Domain"}], "implements": {"href": "/mdr/cdash/1-1/classes/Interventions/fields/--FAST", "title": "Fasting Status", "type": "Class Variable"}, "parentDomain": {"href": "/mdr/cdashig/2-1/domains/EC", "title": "Exposure as Collected", "type": "CDASH Domain"}, "parentProduct": {"href": "/mdr/cdashig/2-1", "title": "Clinical Data Acquisition Standards Harmonization Implementation Guide for Human Clinical Trials Version 2.1", "type": "Implementation Guide"}, "priorVersion": {"href": "/mdr/cdashig/2-0/domains/EC/fields/ECFAST", "title": "Exposure Fasting Status", "type": "Data Collection Field"}, "rootItem": {"href": "/mdr/root/cdashig/domains/EC/fields/ECFAST", "title": "Version-agnostic anchor element for field EC.ECFAST", "type": "Root Data Element"}, "sdtmigDatasetMappingTargets": [{"href": "/mdr/sdtmig/3-2/datasets/EC/variables/ECFAST", "title": "Fasting Status", "type": "SDTM Dataset Variable"}], "self": {"href": "/mdr/cdashig/2-1/domains/EC/fields/ECFAST", "title": "Exposure as Collected Fasting Status", "type": "Data Collection Field"}}, "completionInstructions": "Record whether the subject was fasting prior to the study treatment being taken.", "core": "O", "definition": "An indication that the subject has abstained from food/water for the specified amount of time.", "implementationNotes": "Some study treatments may have a food effect and it is important to know whether the dose was taken while the subject was fasted.", "label": "Exposure as Collected Fasting Status", "mappingInstructions": "Maps directly to the SDTMIG variable listed in the column with the heading SDTMIG Target. Would only be populated when ECMOOD=\"PERFORMED\".", "name": "ECFAST", "ordinal": "15", "prompt": "Fasting", "questionText": "Was the subject fasting?", "simpleDatatype": "Char"}, {"_links": {"codelist": [{"href": "/mdr/root/ct/sdtmct/codelists/C66726", "title": "Version-agnostic anchor resource for codelist C66726", "type": "Root Value Domain"}, {"href": "/mdr/root/ct/cdashct/codelists/C78426", "title": "Version-agnostic anchor resource for codelist C78426", "type": "Root Value Domain"}], "implements": {"href": "/mdr/cdash/1-1/classes/Interventions/fields/--DOSFRM", "title": "Dose Form", "type": "Class Variable"}, "parentDomain": {"href": "/mdr/cdashig/2-1/domains/EC", "title": "Exposure as Collected", "type": "CDASH Domain"}, "parentProduct": {"href": "/mdr/cdashig/2-1", "title": "Clinical Data Acquisition Standards Harmonization Implementation Guide for Human Clinical Trials Version 2.1", "type": "Implementation Guide"}, "priorVersion": {"href": "/mdr/cdashig/2-0/domains/EC/fields/ECDOSFRM", "title": "Exposure Dose Form", "type": "Data Collection Field"}, "rootItem": {"href": "/mdr/root/cdashig/domains/EC/fields/ECDOSFRM", "title": "Version-agnostic anchor element for field EC.ECDOSFRM", "type": "Root Data Element"}, "sdtmigDatasetMappingTargets": [{"href": "/mdr/sdtmig/3-2/datasets/EC/variables/ECDOSFRM", "title": "Dose Form", "type": "SDTM Dataset Variable"}], "self": {"href": "/mdr/cdashig/2-1/domains/EC/fields/ECDOSFRM", "title": "Exposure as Collected Dose Form", "type": "Data Collection Field"}}, "completionInstructions": "Record the dose form (e.g., SOLUTION, TABLET, LOTION) or enter the appropriate code from the code list.", "core": "R/C", "definition": "The dosage form in which the ECTRT is physically presented", "implementationNotes": "This must be collected if it cannot be determined from other sources or if there are multiple options for the same study treatment.", "label": "Exposure as Collected Dose Form", "mappingInstructions": "Maps directly to the SDTMIG variable listed in the column with the heading SDTMIG Target.", "name": "ECDOSFRM", "ordinal": "16", "prompt": "Dose Form", "questionText": "What was the dose form of the [study treatment/dose]?", "simpleDatatype": "Char"}, {"_links": {"implements": {"href": "/mdr/cdash/1-1/classes/Timing/fields/--STDAT", "title": "Observation Start Date", "type": "Class Variable"}, "parentDomain": {"href": "/mdr/cdashig/2-1/domains/EC", "title": "Exposure as Collected", "type": "CDASH Domain"}, "parentProduct": {"href": "/mdr/cdashig/2-1", "title": "Clinical Data Acquisition Standards Harmonization Implementation Guide for Human Clinical Trials Version 2.1", "type": "Implementation Guide"}, "priorVersion": {"href": "/mdr/cdashig/2-0/domains/EC/fields/ECSTDAT", "title": "Exposure Start Date", "type": "Data Collection Field"}, "rootItem": {"href": "/mdr/root/cdashig/domains/EC/fields/ECSTDAT", "title": "Version-agnostic anchor element for field EC.ECSTDAT", "type": "Root Data Element"}, "sdtmigDatasetMappingTargets": [{"href": "/mdr/sdtmig/3-2/datasets/EC/variables/ECSTDTC", "title": "Start Date/Time of Treatment", "type": "SDTM Dataset Variable"}], "self": {"href": "/mdr/cdashig/2-1/domains/EC/fields/ECSTDAT", "title": "Exposure as Collected Start Date", "type": "Data Collection Field"}}, "completionInstructions": "Record the start date of the study treatment administration using this format (DD-MON-YYYY).", "core": "HR", "definition": "The start date of study treatment, intended or actual, represented in an unambiguous date format (e.g., DD-MON-YYYY).", "implementationNotes": "Date when constant dosing interval of the study treatment started or single administration occurred. When collecting the date for an individual dose, the word \"start\" may be omitted from the Question Text and Prompt. When ECMOOD is collected and ECMOOD is \"SCHEDULED\", use \"intended\" in the question text and prompt. When ECMOOD is collected and ECMOOD is \"PERFORMED\", use \"actual\" in the question text and prompt.", "label": "Exposure as Collected Start Date", "mappingInstructions": "This does not map directly to an SDTMIG variable. For the SDTM submission dataset, concatenate all collected CDASH START DATE and TIME components and populate the SDTMIG variable ECSTDTC in ISO 8601 format.", "name": "ECSTDAT", "ordinal": "17", "prompt": "(Start) Date", "questionText": "What was the ([intended/planned/actual]) ([study treatment/dose]) (start) date?", "simpleDatatype": "Char"}, {"_links": {"implements": {"href": "/mdr/cdash/1-1/classes/Timing/fields/--STTIM", "title": "Observation Start Time", "type": "Class Variable"}, "parentDomain": {"href": "/mdr/cdashig/2-1/domains/EC", "title": "Exposure as Collected", "type": "CDASH Domain"}, "parentProduct": {"href": "/mdr/cdashig/2-1", "title": "Clinical Data Acquisition Standards Harmonization Implementation Guide for Human Clinical Trials Version 2.1", "type": "Implementation Guide"}, "priorVersion": {"href": "/mdr/cdashig/2-0/domains/EC/fields/ECSTTIM", "title": "Exposure Start Time", "type": "Data Collection Field"}, "rootItem": {"href": "/mdr/root/cdashig/domains/EC/fields/ECSTTIM", "title": "Version-agnostic anchor element for field EC.ECSTTIM", "type": "Root Data Element"}, "sdtmigDatasetMappingTargets": [{"href": "/mdr/sdtmig/3-2/datasets/EC/variables/ECSTDTC", "title": "Start Date/Time of Treatment", "type": "SDTM Dataset Variable"}], "self": {"href": "/mdr/cdashig/2-1/domains/EC/fields/ECSTTIM", "title": "Exposure as Collected Start Time", "type": "Data Collection Field"}}, "completionInstructions": "Record the start time (as complete as possible) when administration of study treatment started.", "core": "R/C", "definition": "The start time of study treatment, represented in an unambiguous time format (e.g., hh:mm:ss).", "implementationNotes": "Recommend collecting the time a medication was started only when a protocol or data collection scenarios requires it. When collecting the time for an individual dose, the word \"start\" may be omitted from the Question Text and Prompt.", "label": "Exposure as Collected Start Time", "mappingInstructions": "This does not map directly to an SDTMIG variable. For the SDTM submission dataset, concatenate all collected CDASH START DATE and TIME components and populate the SDTMIG variable ECSTDTC in ISO 8601 format.", "name": "ECSTTIM", "ordinal": "18", "prompt": "(Start) Time", "questionText": "What was the ([intended/planned/actual]) ([study treatment/dose]) (start) time?", "simpleDatatype": "Char"}, {"_links": {"implements": {"href": "/mdr/cdash/1-1/classes/Timing/fields/--ENDAT", "title": "Observation End Date", "type": "Class Variable"}, "parentDomain": {"href": "/mdr/cdashig/2-1/domains/EC", "title": "Exposure as Collected", "type": "CDASH Domain"}, "parentProduct": {"href": "/mdr/cdashig/2-1", "title": "Clinical Data Acquisition Standards Harmonization Implementation Guide for Human Clinical Trials Version 2.1", "type": "Implementation Guide"}, "priorVersion": {"href": "/mdr/cdashig/2-0/domains/EC/fields/ECENDAT", "title": "Exposure End Date", "type": "Data Collection Field"}, "rootItem": {"href": "/mdr/root/cdashig/domains/EC/fields/ECENDAT", "title": "Version-agnostic anchor element for field EC.ECENDAT", "type": "Root Data Element"}, "sdtmigDatasetMappingTargets": [{"href": "/mdr/sdtmig/3-2/datasets/EC/variables/ECENDTC", "title": "End Date/Time of Treatment", "type": "SDTM Dataset Variable"}], "self": {"href": "/mdr/cdashig/2-1/domains/EC/fields/ECENDAT", "title": "Exposure as Collected End Date", "type": "Data Collection Field"}}, "completionInstructions": "Record the end date of the study treatment administration using this format (DD-MON-YYYY).", "core": "R/C", "definition": "The end date of study treatment, represented in an unambiguous date format (e.g., DD-MON-YYYY).", "implementationNotes": "Date when study treatment period stopped.If start date and end date are not expected to be on the same date, the collection of the end date is required. If the study design indicates that the start and end date are on the same day, the collection of the end date is not required because it can be assigned to be equal to the start date.", "label": "Exposure as Collected End Date", "mappingInstructions": "This does not map directly to an SDTMIG variable. For the SDTM submission dataset, concatenate all collected CDASH END DATE and TIME components and populate the SDTMIG variable ECENDTC in ISO 8601 format.", "name": "ECENDAT", "ordinal": "19", "prompt": "(End) Date", "questionText": "What was the ([intended/planned/actual]) ([study treatment/dose]) (end) date?", "simpleDatatype": "Char"}, {"_links": {"implements": {"href": "/mdr/cdash/1-1/classes/Timing/fields/--ENTIM", "title": "Observation End Time", "type": "Class Variable"}, "parentDomain": {"href": "/mdr/cdashig/2-1/domains/EC", "title": "Exposure as Collected", "type": "CDASH Domain"}, "parentProduct": {"href": "/mdr/cdashig/2-1", "title": "Clinical Data Acquisition Standards Harmonization Implementation Guide for Human Clinical Trials Version 2.1", "type": "Implementation Guide"}, "priorVersion": {"href": "/mdr/cdashig/2-0/domains/EC/fields/ECENTIM", "title": "Exposure End Time", "type": "Data Collection Field"}, "rootItem": {"href": "/mdr/root/cdashig/domains/EC/fields/ECENTIM", "title": "Version-agnostic anchor element for field EC.ECENTIM", "type": "Root Data Element"}, "sdtmigDatasetMappingTargets": [{"href": "/mdr/sdtmig/3-2/datasets/EC/variables/ECENDTC", "title": "End Date/Time of Treatment", "type": "SDTM Dataset Variable"}], "self": {"href": "/mdr/cdashig/2-1/domains/EC/fields/ECENTIM", "title": "Exposure as Collected End Time", "type": "Data Collection Field"}}, "completionInstructions": "Record the time, (as complete as possible) when study treatment administration stopped (e.g., for infusions this is the time when the infusion ended).", "core": "R/C", "definition": "The end time of study treatment, represented in an unambiguous time format (e.g., hh:mm:ss).", "implementationNotes": "Recommend collecting the time a medication was ended when a protocol or data collection scenarios requires it. For infusions, the end time of the infusion is typically needed.", "label": "Exposure as Collected End Time", "mappingInstructions": "This does not map directly to an SDTMIG variable. For the SDTM submission dataset, concatenate all collected CDASH END DATE and TIME components and populate the SDTMIG variable ECENDTC in ISO 8601 format.", "name": "ECENTIM", "ordinal": "20", "prompt": "(End) Time", "questionText": "What was the ([intended/planned/actual]) ([study treatment/dose]) (end) time?", "simpleDatatype": "Char"}, {"_links": {"implements": {"href": "/mdr/cdash/1-1/classes/Interventions/fields/--DSTXT", "title": "Dose Description", "type": "Class Variable"}, "parentDomain": {"href": "/mdr/cdashig/2-1/domains/EC", "title": "Exposure as Collected", "type": "CDASH Domain"}, "parentProduct": {"href": "/mdr/cdashig/2-1", "title": "Clinical Data Acquisition Standards Harmonization Implementation Guide for Human Clinical Trials Version 2.1", "type": "Implementation Guide"}, "priorVersion": {"href": "/mdr/cdashig/2-0/domains/EC/fields/ECDSTXT", "title": "Exposure Dose Description", "type": "Data Collection Field"}, "rootItem": {"href": "/mdr/root/cdashig/domains/EC/fields/ECDSTXT", "title": "Version-agnostic anchor element for field EC.ECDSTXT", "type": "Root Data Element"}, "sdtmigDatasetMappingTargets": [{"href": "/mdr/sdtmig/3-2/datasets/EC/variables/ECDOSE", "title": "Dose", "type": "SDTM Dataset Variable"}, {"href": "/mdr/sdtmig/3-2/datasets/EC/variables/ECDOSTXT", "title": "Dose Description", "type": "SDTM Dataset Variable"}], "self": {"href": "/mdr/cdashig/2-1/domains/EC/fields/ECDSTXT", "title": "Exposure as Collected Dose Description", "type": "Data Collection Field"}}, "completionInstructions": "Record the dose or amount of study treatment that was administered to/taken by the subject in the period recorded; from the start date/time to the end date/time inclusive.", "core": "R/C", "definition": "The dose of study medication taken (per administration).", "implementationNotes": "Dose or amount taken for single administration of study treatment or per constant dosing interval recorded. Dose must be collected if it cannot be determined via other methods (e.g., from diary data, drug accountability data, protocol). Care should be taken when mapping ECDSTXT. The data collected in this dose text-format field should be separated or mapped to either ECDOSE if numeric or ECDOSTXT if text.", "label": "Exposure as Collected Dose Description", "mappingInstructions": "This does not map directly to an SDTMIG variable. The data collected in this dose text-format field should be mapped to either ECDOSE if numeric or ECDOSTXT if text.", "name": "ECDSTXT", "ordinal": "21", "prompt": "Dose", "questionText": "What was the dose (per administration) (of [study treatment/dose])?", "simpleDatatype": "Char"}, {"_links": {"codelist": [{"href": "/mdr/root/ct/sdtmct/codelists/C71620", "title": "Version-agnostic anchor resource for codelist C71620", "type": "Root Value Domain"}, {"href": "/mdr/root/ct/cdashct/codelists/C78423", "title": "Version-agnostic anchor resource for codelist C78423", "type": "Root Value Domain"}], "implements": {"href": "/mdr/cdash/1-1/classes/Interventions/fields/--DOSU", "title": "Dose Units", "type": "Class Variable"}, "parentDomain": {"href": "/mdr/cdashig/2-1/domains/EC", "title": "Exposure as Collected", "type": "CDASH Domain"}, "parentProduct": {"href": "/mdr/cdashig/2-1", "title": "Clinical Data Acquisition Standards Harmonization Implementation Guide for Human Clinical Trials Version 2.1", "type": "Implementation Guide"}, "priorVersion": {"href": "/mdr/cdashig/2-0/domains/EC/fields/ECDOSU", "title": "Exposure Dose Unit", "type": "Data Collection Field"}, "rootItem": {"href": "/mdr/root/cdashig/domains/EC/fields/ECDOSU", "title": "Version-agnostic anchor element for field EC.ECDOSU", "type": "Root Data Element"}, "sdtmigDatasetMappingTargets": [{"href": "/mdr/sdtmig/3-2/datasets/EC/variables/ECDOSU", "title": "Dose Units", "type": "SDTM Dataset Variable"}], "self": {"href": "/mdr/cdashig/2-1/domains/EC/fields/ECDOSU", "title": "Exposure as Collected Dose Units", "type": "Data Collection Field"}}, "completionInstructions": "Record the unit of dose or amount taken per period recorded (e.g., ng, mg, mg/kg).", "core": "R/C", "definition": "The unit for intended dose (per administration) for ECDOSE, ECDOSTOT, or ECDOSTXT.", "implementationNotes": "Unit of dose or amount taken per constant dosing interval recorded. Dose unit must be collected if it cannot be determined via other methods (e.g., determined from protocol, randomization data). The unit should be preprinted on the CRF or a field provided on the CRF to capture it. A CDASH Subset Controlled Terminology Codelist Name is available for dose and volume units. In blinded trials, the collected unit may be tablet, capsule, etc., since the actual unit is also blinded.", "label": "Exposure as Collected Dose Units", "mappingInstructions": "Maps directly to the SDTMIG variable listed in the column with the heading SDTMIG Target.", "name": "ECDOSU", "ordinal": "22", "prompt": "Units", "questionText": "What were the units for the dose?", "simpleDatatype": "Char"}, {"_links": {"codelist": [{"href": "/mdr/root/ct/sdtmct/codelists/C71113", "title": "Version-agnostic anchor resource for codelist C71113", "type": "Root Value Domain"}, {"href": "/mdr/root/ct/cdashct/codelists/C78745", "title": "Version-agnostic anchor resource for codelist C78745", "type": "Root Value Domain"}], "implements": {"href": "/mdr/cdash/1-1/classes/Interventions/fields/--DOSFRQ", "title": "Dosing Frequency per Interval", "type": "Class Variable"}, "parentDomain": {"href": "/mdr/cdashig/2-1/domains/EC", "title": "Exposure as Collected", "type": "CDASH Domain"}, "parentProduct": {"href": "/mdr/cdashig/2-1", "title": "Clinical Data Acquisition Standards Harmonization Implementation Guide for Human Clinical Trials Version 2.1", "type": "Implementation Guide"}, "priorVersion": {"href": "/mdr/cdashig/2-0/domains/EC/fields/ECDOSFRQ", "title": "Exposure Dosing Frequency per Interval", "type": "Data Collection Field"}, "rootItem": {"href": "/mdr/root/cdashig/domains/EC/fields/ECDOSFRQ", "title": "Version-agnostic anchor element for field EC.ECDOSFRQ", "type": "Root Data Element"}, "sdtmigDatasetMappingTargets": [{"href": "/mdr/sdtmig/3-2/datasets/EC/variables/ECDOSFRQ", "title": "Dosing Frequency per Interval", "type": "SDTM Dataset Variable"}], "self": {"href": "/mdr/cdashig/2-1/domains/EC/fields/ECDOSFRQ", "title": "EC Dosing Frequency per Interval", "type": "Data Collection Field"}}, "completionInstructions": "Record the frequency the study treatment was administered for a defined period of time (e.g., BID, QID, TID).", "core": "R/C", "definition": "The number of doses given/administered/taken during a specific interval.", "implementationNotes": "This may be collected if it cannot be determined from other sources or if there are multiple options. When possible, the options for dose/amount frequency are pre-printed on the CRF. When collected, the recommendation is to collect dosing information in separate fields (e.g., ECDOSE, ECDOSEU, ECDOSFRQ) for specific and consistent data collection and to enable programmatically utilizing these data.", "label": "EC Dosing Frequency per Interval", "mappingInstructions": "Maps directly to the SDTMIG variable listed in the column with the heading SDTMIG Target.", "name": "ECDOSFRQ", "ordinal": "23", "prompt": "Frequency", "questionText": "What was the frequency of [study treatment/dose] dosing?", "simpleDatatype": "Char"}, {"_links": {"codelist": [{"href": "/mdr/root/ct/sdtmct/codelists/C66729", "title": "Version-agnostic anchor resource for codelist C66729", "type": "Root Value Domain"}, {"href": "/mdr/root/ct/cdashct/codelists/C78425", "title": "Version-agnostic anchor resource for codelist C78425", "type": "Root Value Domain"}], "implements": {"href": "/mdr/cdash/1-1/classes/Interventions/fields/--ROUTE", "title": "Route of Administration", "type": "Class Variable"}, "parentDomain": {"href": "/mdr/cdashig/2-1/domains/EC", "title": "Exposure as Collected", "type": "CDASH Domain"}, "parentProduct": {"href": "/mdr/cdashig/2-1", "title": "Clinical Data Acquisition Standards Harmonization Implementation Guide for Human Clinical Trials Version 2.1", "type": "Implementation Guide"}, "priorVersion": {"href": "/mdr/cdashig/2-0/domains/EC/fields/ECROUTE", "title": "Exposure Route of Administration", "type": "Data Collection Field"}, "rootItem": {"href": "/mdr/root/cdashig/domains/EC/fields/ECROUTE", "title": "Version-agnostic anchor element for field EC.ECROUTE", "type": "Root Data Element"}, "sdtmigDatasetMappingTargets": [{"href": "/mdr/sdtmig/3-2/datasets/EC/variables/ECROUTE", "title": "Route of Administration", "type": "SDTM Dataset Variable"}], "self": {"href": "/mdr/cdashig/2-1/domains/EC/fields/ECROUTE", "title": "EC Route of Administration", "type": "Data Collection Field"}}, "completionInstructions": "Record the route of administration (e.g., IV, ORAL, TRANSDERMAL) or enter the appropriate code from the code list.", "core": "R/C", "definition": "The route of administration of the study treatment.", "implementationNotes": "This may be collected if it cannot be determined via other methods (e.g., from protocol) or if there are multiple options.", "label": "EC Route of Administration", "mappingInstructions": "Maps directly to the SDTMIG variable listed in the column with the heading SDTMIG Target.", "name": "ECROUTE", "ordinal": "24", "prompt": "Route", "questionText": "What was the route of administration (of the [study treatment/dose])?", "simpleDatatype": "Char"}, {"_links": {"implements": {"href": "/mdr/cdash/1-1/classes/Interventions/fields/--DOSRGM", "title": "Intended Dose Regimen", "type": "Class Variable"}, "parentDomain": {"href": "/mdr/cdashig/2-1/domains/EC", "title": "Exposure as Collected", "type": "CDASH Domain"}, "parentProduct": {"href": "/mdr/cdashig/2-1", "title": "Clinical Data Acquisition Standards Harmonization Implementation Guide for Human Clinical Trials Version 2.1", "type": "Implementation Guide"}, "priorVersion": {"href": "/mdr/cdashig/2-0/domains/EC/fields/ECDOSRGM", "title": "Intended Dose Regimen", "type": "Data Collection Field"}, "rootItem": {"href": "/mdr/root/cdashig/domains/EC/fields/ECDOSRGM", "title": "Version-agnostic anchor element for field EC.ECDOSRGM", "type": "Root Data Element"}, "sdtmigDatasetMappingTargets": [{"href": "/mdr/sdtmig/3-2/datasets/EC/variables/ECDOSRGM", "title": "Intended Dose Regimen", "type": "SDTM Dataset Variable"}], "self": {"href": "/mdr/cdashig/2-1/domains/EC/fields/ECDOSRGM", "title": "Intended Dose Regimen", "type": "Data Collection Field"}}, "completionInstructions": "Record the regimen for the study medication.", "core": "O", "definition": "The text description of the (intended) schedule or regimen for the Intervention.", "implementationNotes": "The regimen information (e.g., TWO WEEKS ON, TWO WEEKS OFF) may further clarify the dose administration and dose frequency. This may be preprinted or collected. The sponsor may wish to create a codelist to collect this data consistently.", "label": "Intended Dose Regimen", "mappingInstructions": "Maps directly to the SDTMIG variable listed in the column with the heading SDTMIG Target.", "name": "ECDOSRGM", "ordinal": "25", "prompt": "Intended Dose Regimen", "questionText": "What was the intended dose regimen?", "simpleDatatype": "Char"}, {"_links": {"codelist": [{"href": "/mdr/root/ct/sdtmct/codelists/C66742", "title": "Version-agnostic anchor resource for codelist C66742", "type": "Root Value Domain"}], "implements": {"href": "/mdr/cdash/1-1/classes/Interventions/fields/--DOSADJ", "title": "Dose Adjusted", "type": "Class Variable"}, "parentDomain": {"href": "/mdr/cdashig/2-1/domains/EC", "title": "Exposure as Collected", "type": "CDASH Domain"}, "parentProduct": {"href": "/mdr/cdashig/2-1", "title": "Clinical Data Acquisition Standards Harmonization Implementation Guide for Human Clinical Trials Version 2.1", "type": "Implementation Guide"}, "priorVersion": {"href": "/mdr/cdashig/2-0/domains/EC/fields/ECDOSADJ", "title": "Dose Adjusted", "type": "Data Collection Field"}, "rootItem": {"href": "/mdr/root/cdashig/domains/EC/fields/ECDOSADJ", "title": "Version-agnostic anchor element for field EC.ECDOSADJ", "type": "Root Data Element"}, "self": {"href": "/mdr/cdashig/2-1/domains/EC/fields/ECDOSADJ", "title": "Dose Adjusted", "type": "Data Collection Field"}}, "completionInstructions": "Select either Yes or No to indicate whether there was a change in dosing.", "core": "O", "definition": "An indication whether or not the dose was adjusted.", "implementationNotes": "Typically, the intent/purpose of collecting this field is to help with data cleaning and monitoring as it provides a definitive response regarding any dose changes. It provides verification that the associate field on the CRF (ECADJ) was deliberately left blank. However, the sponsor may collect whether the dose was adjusted, without collecting the reason for the change. When using ECMOOD, this field should not be used.", "label": "Dose Adjusted", "mappingInstructions": "When ECADJ is collected, does not map to an SDTMIG variable. The SDTM Annotated CRF is annotated to indicate that this field is NOT SUBMITTED. When ECADJ is not collected, the sponsor may submit this variable in SUPPEC.", "name": "ECDOSADJ", "ordinal": "26", "prompt": "(Dose) Adjusted", "questionText": "Was the dose adjusted?", "simpleDatatype": "Char"}, {"_links": {"implements": {"href": "/mdr/cdash/1-1/classes/Interventions/fields/--ADJ", "title": "Reason for Dose Adjustment", "type": "Class Variable"}, "parentDomain": {"href": "/mdr/cdashig/2-1/domains/EC", "title": "Exposure as Collected", "type": "CDASH Domain"}, "parentProduct": {"href": "/mdr/cdashig/2-1", "title": "Clinical Data Acquisition Standards Harmonization Implementation Guide for Human Clinical Trials Version 2.1", "type": "Implementation Guide"}, "priorVersion": {"href": "/mdr/cdashig/2-0/domains/EC/fields/ECADJ", "title": "Reason for Dose Adjustment", "type": "Data Collection Field"}, "rootItem": {"href": "/mdr/root/cdashig/domains/EC/fields/ECADJ", "title": "Version-agnostic anchor element for field EC.ECADJ", "type": "Root Data Element"}, "sdtmigDatasetMappingTargets": [{"href": "/mdr/sdtmig/3-2/datasets/EC/variables/ECADJ", "title": "Reason for Dose Adjustment", "type": "SDTM Dataset Variable"}], "self": {"href": "/mdr/cdashig/2-1/domains/EC/fields/ECADJ", "title": "Reason for Dose Adjustment", "type": "Data Collection Field"}}, "completionInstructions": "If there was a change in dosing, record the reason for change.", "core": "O", "definition": "Description or explanation of why a dose of the study treatment is adjusted.", "implementationNotes": "Captures the reason the dose was changed or modified. The reason may be chosen from a sponsor-defined list (e.g., adverse event, insufficient response) or entered as free text. May be used for variations from protocol-specified doses, or changes from expected doses. Used only when an adjustment is represented in EX dataset.", "label": "Reason for Dose Adjustment", "mappingInstructions": "Maps directly to the SDTMIG variable listed in the column with the heading SDTMIG Target.", "name": "ECADJ", "ordinal": "27", "prompt": "Reason Adjusted", "questionText": "What was the reason the dose was adjusted?", "simpleDatatype": "Char"}, {"_links": {"codelist": [{"href": "/mdr/root/ct/sdtmct/codelists/C66742", "title": "Version-agnostic anchor resource for codelist C66742", "type": "Root Value Domain"}], "implements": {"href": "/mdr/cdash/1-1/classes/Interventions/fields/--ITRPYN", "title": "Intervention Interrupted", "type": "Class Variable"}, "parentDomain": {"href": "/mdr/cdashig/2-1/domains/EC", "title": "Exposure as Collected", "type": "CDASH Domain"}, "parentProduct": {"href": "/mdr/cdashig/2-1", "title": "Clinical Data Acquisition Standards Harmonization Implementation Guide for Human Clinical Trials Version 2.1", "type": "Implementation Guide"}, "rootItem": {"href": "/mdr/root/cdashig/domains/EC/fields/ECITRPYN", "title": "Version-agnostic anchor element for field EC.ECITRPYN", "type": "Root Data Element"}, "self": {"href": "/mdr/cdashig/2-1/domains/EC/fields/ECITRPYN", "title": "EC Exposure Interrupted", "type": "Data Collection Field"}}, "completionInstructions": "Record if there was an interruption in the study treatment or dosing.", "core": "O", "definition": "An indication whether of not the exposure was interrupted.", "implementationNotes": "The intent/purpose of collecting this field is to help with data cleaning and monitoring when the actual duration of the exposure is collected using the CDASH field ECCINTD. In some situations, if the actual duration of the interruption is not collected, or not derived, this information could be submitted in a SUPPEC.QVAL dataset where SUPPEC.QNAM = \"ECITRPYN\" and SUPPEC.QLABEL = \"Exposure Interrupted\".", "label": "EC Exposure Interrupted", "mappingInstructions": "Does not map to an SDTMIG variable. The SDTMIG Annotated CRF is annotated to indicate that this field is NOT SUBMITTED.", "name": "ECITRPYN", "ordinal": "28", "prompt": "[(Study) Treatment / Dose] Interrupted", "questionText": "Was the [(study) treatment/dose] interrupted?", "simpleDatatype": "Char"}, {"_links": {"implements": {"href": "/mdr/cdash/1-1/classes/Interventions/fields/--CINTD", "title": "Interruption Duration", "type": "Class Variable"}, "parentDomain": {"href": "/mdr/cdashig/2-1/domains/EC", "title": "Exposure as Collected", "type": "CDASH Domain"}, "parentProduct": {"href": "/mdr/cdashig/2-1", "title": "Clinical Data Acquisition Standards Harmonization Implementation Guide for Human Clinical Trials Version 2.1", "type": "Implementation Guide"}, "rootItem": {"href": "/mdr/root/cdashig/domains/EC/fields/ECCINTD", "title": "Version-agnostic anchor element for field EC.ECCINTD", "type": "Root Data Element"}, "sdtmigDatasetMappingTargets": [{"href": "/mdr/sdtmig/3-2/datasets/SUPPQUAL/variables/QVAL", "title": "Data Value", "type": "SDTM Dataset Variable"}], "self": {"href": "/mdr/cdashig/2-1/domains/EC/fields/ECCINTD", "title": "EC Interruption Duration", "type": "Data Collection Field"}}, "completionInstructions": "Record the duration of treatment interruption.", "core": "O", "definition": "The collected duration of the treatment interruption.", "implementationNotes": "This field is used to collect the duration of treatment interruption. In some situations, the duration of the interruption may not be collected but calculated from the treatment start and end times recorded elsewhere in the CRF.", "label": "EC Interruption Duration", "mappingInstructions": "This does not map directly to an SDTMIG variable. This information could be submitted in a SUPPEC dataset as the value of SUPPEC.QVAL where SUPPEC.QNAM=\"ECITRPD\" and SUPPEC.QLABEL= \"Interruption Duration\". Concatenate the collected treatment interruption duration and the duration unit components and create ECITRPD using ISO 8601 Period format. Refer to the current SDTM and SDTMIG for instructions on placement of non-standard variables in SDTM domains.", "name": "ECCINTD", "ordinal": "29", "prompt": "(Interruption) Duration", "questionText": "What was the duration of the treatment interruption?", "simpleDatatype": "Char"}, {"_links": {"codelist": [{"href": "/mdr/root/ct/sdtmct/codelists/C71620", "title": "Version-agnostic anchor resource for codelist C71620", "type": "Root Value Domain"}], "implements": {"href": "/mdr/cdash/1-1/classes/Interventions/fields/--CINTDU", "title": "Interruption Duration Unit", "type": "Class Variable"}, "parentDomain": {"href": "/mdr/cdashig/2-1/domains/EC", "title": "Exposure as Collected", "type": "CDASH Domain"}, "parentProduct": {"href": "/mdr/cdashig/2-1", "title": "Clinical Data Acquisition Standards Harmonization Implementation Guide for Human Clinical Trials Version 2.1", "type": "Implementation Guide"}, "rootItem": {"href": "/mdr/root/cdashig/domains/EC/fields/ECCINTDU", "title": "Version-agnostic anchor element for field EC.ECCINTDU", "type": "Root Data Element"}, "sdtmigDatasetMappingTargets": [{"href": "/mdr/sdtmig/3-2/datasets/SUPPQUAL/variables/QVAL", "title": "Data Value", "type": "SDTM Dataset Variable"}], "self": {"href": "/mdr/cdashig/2-1/domains/EC/fields/ECCINTDU", "title": "EC Interruption Duration Units", "type": "Data Collection Field"}}, "completionInstructions": "Record the unit (e.g., MINUTES, HOURS, DAYS) for the duration of treatment interruption.", "core": "O", "definition": "The unit for the collected duration of treatment interruption.", "implementationNotes": "The unit should be collected as a qualifier to the number for duration.", "label": "EC Interruption Duration Units", "mappingInstructions": "This does not map directly to an SDTMIG variable. This information could be submitted in a SUPPEC dataset as the value of SUPPEC.QVAL where SUPPEC.QNAM = \"ECITRPD\" and SUPPEC.QLABEL= \"Interruption Duration\". Concatenate the collected treatment interruption duration and the duration unit components and create ECITRPD using ISO 8601 Period format. Refer to the current SDTM and SDTMIG for instructions on placement of non-standard variables in SDTM domains.", "name": "ECCINTDU", "ordinal": "29", "prompt": "(Interruption Duration) Unit", "questionText": "What was the interruption duration unit?", "simpleDatatype": "Char"}, {"_links": {"codelist": [{"href": "/mdr/root/ct/sdtmct/codelists/C74456", "title": "Version-agnostic anchor resource for codelist C74456", "type": "Root Value Domain"}], "implements": {"href": "/mdr/cdash/1-1/classes/Interventions/fields/--LOC", "title": "Location of Dose Administration", "type": "Class Variable"}, "parentDomain": {"href": "/mdr/cdashig/2-1/domains/EC", "title": "Exposure as Collected", "type": "CDASH Domain"}, "parentProduct": {"href": "/mdr/cdashig/2-1", "title": "Clinical Data Acquisition Standards Harmonization Implementation Guide for Human Clinical Trials Version 2.1", "type": "Implementation Guide"}, "priorVersion": {"href": "/mdr/cdashig/2-0/domains/EC/fields/ECLOC", "title": "Exposure Location", "type": "Data Collection Field"}, "rootItem": {"href": "/mdr/root/cdashig/domains/EC/fields/ECLOC", "title": "Version-agnostic anchor element for field EC.ECLOC", "type": "Root Data Element"}, "sdtmigDatasetMappingTargets": [{"href": "/mdr/sdtmig/3-2/datasets/EC/variables/ECLOC", "title": "Location of Dose Administration", "type": "SDTM Dataset Variable"}], "self": {"href": "/mdr/cdashig/2-1/domains/EC/fields/ECLOC", "title": "EC Location of Dose Administration", "type": "Data Collection Field"}}, "completionInstructions": "Record the body location where the study treatment was administered (e.g., SHOULDER, HIP, ARM).", "core": "O", "definition": "A description of the anatomical location of administration.", "implementationNotes": "Collected or preprinted when the sponsor needs to identify the specific anatomical location where the study treatment was administered. LAT, DIR, PORTOT are used to further describe the anatomical location.", "label": "EC Location of Dose Administration", "mappingInstructions": "Maps directly to the SDTMIG variable listed in the column with the heading SDTMIG Target.", "name": "ECLOC", "ordinal": "30", "prompt": "Anatomical Location", "questionText": "What was the anatomical location of the ([study treatment/dose]) administration?", "simpleDatatype": "Char"}, {"_links": {"codelist": [{"href": "/mdr/root/ct/sdtmct/codelists/C99073", "title": "Version-agnostic anchor resource for codelist C99073", "type": "Root Value Domain"}], "implements": {"href": "/mdr/cdash/1-1/classes/Interventions/fields/--LAT", "title": "Laterality", "type": "Class Variable"}, "parentDomain": {"href": "/mdr/cdashig/2-1/domains/EC", "title": "Exposure as Collected", "type": "CDASH Domain"}, "parentProduct": {"href": "/mdr/cdashig/2-1", "title": "Clinical Data Acquisition Standards Harmonization Implementation Guide for Human Clinical Trials Version 2.1", "type": "Implementation Guide"}, "priorVersion": {"href": "/mdr/cdashig/2-0/domains/EC/fields/ECLAT", "title": "Exposure as Collected Laterality", "type": "Data Collection Field"}, "rootItem": {"href": "/mdr/root/cdashig/domains/EC/fields/ECLAT", "title": "Version-agnostic anchor element for field EC.ECLAT", "type": "Root Data Element"}, "sdtmigDatasetMappingTargets": [{"href": "/mdr/sdtmig/3-2/datasets/EC/variables/ECLAT", "title": "Laterality", "type": "SDTM Dataset Variable"}], "self": {"href": "/mdr/cdashig/2-1/domains/EC/fields/ECLAT", "title": "Exposure as Collected Laterality", "type": "Data Collection Field"}}, "completionInstructions": "Record the side of the body location where the study treatment was administered (e.g., Left, Right).", "core": "O", "definition": "Qualifier for anatomical location further detailing side of the body for the study treatment administration.", "implementationNotes": "Further details the laterality of the location where the study treatment was administered. This may be preprinted or collected. Sponsors may collect the data using a subset list of controlled terminology on the CRF.", "label": "Exposure as Collected Laterality", "mappingInstructions": "Maps directly to the SDTMIG variable listed in the column with the heading SDTMIG Target.", "name": "ECLAT", "ordinal": "31", "prompt": "Side", "questionText": "What was the side of the anatomical location of the ([study treatment/dose]