{"_links": {"priorVersion": {"href": "/mdr/sdtm/1-2", "title": "Study Data Tabulation Model Version 1.2", "type": "Foundational Model"}, "self": {"href": "/mdr/sdtm/1-3", "title": "Study Data Tabulation Model Version 1.3", "type": "Foundational Model"}}, "classes": [{"_links": {"parentProduct": {"href": "/mdr/sdtm/1-3", "title": "Study Data Tabulation Model Version 1.3", "type": "Foundational Model"}, "priorVersion": {"href": "/mdr/sdtm/1-2/classes/GeneralObservations", "title": "General Observation Class", "type": "Class"}, "self": {"href": "/mdr/sdtm/1-3/classes/GeneralObservations", "title": "General Observation Class", "type": "Class"}, "subclasses": [{"href": "/mdr/sdtm/1-3/classes/Interventions", "title": "Interventions Observation Class", "type": "Class"}, {"href": "/mdr/sdtm/1-3/classes/Events", "title": "Events Observation Class", "type": "Class"}, {"href": "/mdr/sdtm/1-3/classes/Findings", "title": "Findings Observation Class", "type": "Class"}]}, "classVariables": [{"_links": {"parentClass": {"href": "/mdr/sdtm/1-3/classes/GeneralObservations", "title": "General Observation Class", "type": "Class"}, "parentProduct": {"href": "/mdr/sdtm/1-3", "title": "Study Data Tabulation Model Version 1.3", "type": "Foundational Model"}, "priorVersion": {"href": "/mdr/sdtm/1-2/classes/GeneralObservations/variables/STUDYID", "title": "Study Identifier", "type": "Class Variable"}, "rootItem": {"href": "/mdr/root/sdtm/classes/GeneralObservations/variables/STUDYID", "title": "Version-agnostic anchor resource for SDTM variable GeneralObservations.STUDYID", "type": "Root Data Element"}, "self": {"href": "/mdr/sdtm/1-3/classes/GeneralObservations/variables/STUDYID", "title": "Study Identifier", "type": "Class Variable"}}, "description": "Unique identifier for a study.", "label": "Study Identifier", "name": "STUDYID", "ordinal": "1", "role": "Identifier", "roleDescription": "Identifier", "simpleDatatype": "Char"}, {"_links": {"parentClass": {"href": "/mdr/sdtm/1-3/classes/GeneralObservations", "title": "General Observation Class", "type": "Class"}, "parentProduct": {"href": "/mdr/sdtm/1-3", "title": "Study Data Tabulation Model Version 1.3", "type": "Foundational Model"}, "priorVersion": {"href": "/mdr/sdtm/1-2/classes/GeneralObservations/variables/DOMAIN", "title": "Domain Abbreviation", "type": "Class Variable"}, "rootItem": {"href": "/mdr/root/sdtm/classes/GeneralObservations/variables/DOMAIN", "title": "Version-agnostic anchor resource for SDTM variable GeneralObservations.DOMAIN", "type": "Root Data Element"}, "self": {"href": "/mdr/sdtm/1-3/classes/GeneralObservations/variables/DOMAIN", "title": "Domain Abbreviation", "type": "Class Variable"}}, "description": "Two-character abbreviation for the domain most relevant to the observation. The Domain abbreviation is also used as a prefix for variables to ensure uniqueness when datasets are merged.", "label": "Domain Abbreviation", "name": "DOMAIN", "ordinal": "2", "role": "Identifier", "roleDescription": "Identifier", "simpleDatatype": "Char"}, {"_links": {"parentClass": {"href": "/mdr/sdtm/1-3/classes/GeneralObservations", "title": "General Observation Class", "type": "Class"}, "parentProduct": {"href": "/mdr/sdtm/1-3", "title": "Study Data Tabulation Model Version 1.3", "type": "Foundational Model"}, "priorVersion": {"href": "/mdr/sdtm/1-2/classes/GeneralObservations/variables/USUBJID", "title": "Unique Subject Identifier", "type": "Class Variable"}, "rootItem": {"href": "/mdr/root/sdtm/classes/GeneralObservations/variables/USUBJID", "title": "Version-agnostic anchor resource for SDTM variable GeneralObservations.USUBJID", "type": "Root Data Element"}, "self": {"href": "/mdr/sdtm/1-3/classes/GeneralObservations/variables/USUBJID", "title": "Unique Subject Identifier", "type": "Class Variable"}}, "description": "Identifier used to uniquely identify a subject across all studies for all applications or submissions involving the product.", "label": "Unique Subject Identifier", "name": "USUBJID", "ordinal": "3", "role": "Identifier", "roleDescription": "Identifier", "simpleDatatype": "Char"}, {"_links": {"parentClass": {"href": "/mdr/sdtm/1-3/classes/GeneralObservations", "title": "General Observation Class", "type": "Class"}, "parentProduct": {"href": "/mdr/sdtm/1-3", "title": "Study Data Tabulation Model Version 1.3", "type": "Foundational Model"}, "rootItem": {"href": "/mdr/root/sdtm/classes/GeneralObservations/variables/POOLID", "title": "Version-agnostic anchor resource for SDTM variable GeneralObservations.POOLID", "type": "Root Data Element"}, "self": {"href": "/mdr/sdtm/1-3/classes/GeneralObservations/variables/POOLID", "title": "Pool Identifier", "type": "Class Variable"}}, "description": "An identifier used to identify a result from a group of subjects that is not assignable to a specific subject.", "label": "Pool Identifier", "name": "POOLID", "ordinal": "4", "role": "Identifier", "roleDescription": "Identifier", "simpleDatatype": "Char"}, {"_links": {"parentClass": {"href": "/mdr/sdtm/1-3/classes/GeneralObservations", "title": "General Observation Class", "type": "Class"}, "parentProduct": {"href": "/mdr/sdtm/1-3", "title": "Study Data Tabulation Model Version 1.3", "type": "Foundational Model"}, "priorVersion": {"href": "/mdr/sdtm/1-2/classes/GeneralObservations/variables/--SEQ", "title": "Sequence Number", "type": "Class Variable"}, "rootItem": {"href": "/mdr/root/sdtm/classes/GeneralObservations/variables/--SEQ", "title": "Version-agnostic anchor resource for SDTM variable GeneralObservations.--SEQ", "type": "Root Data Element"}, "self": {"href": "/mdr/sdtm/1-3/classes/GeneralObservations/variables/--SEQ", "title": "Sequence Number", "type": "Class Variable"}}, "description": "Sequence number to ensure uniqueness of records within a dataset for a subject (or within a parameter, in the case of the Trial Summary domain). May be any valid number (including decimals) and does not have to start at 1.", "label": "Sequence Number", "name": "--SEQ", "ordinal": "5", "role": "Identifier", "roleDescription": "Identifier", "simpleDatatype": "Num"}, {"_links": {"parentClass": {"href": "/mdr/sdtm/1-3/classes/GeneralObservations", "title": "General Observation Class", "type": "Class"}, "parentProduct": {"href": "/mdr/sdtm/1-3", "title": "Study Data Tabulation Model Version 1.3", "type": "Foundational Model"}, "priorVersion": {"href": "/mdr/sdtm/1-2/classes/GeneralObservations/variables/--GRPID", "title": "Group ID", "type": "Class Variable"}, "rootItem": {"href": "/mdr/root/sdtm/classes/GeneralObservations/variables/--GRPID", "title": "Version-agnostic anchor resource for SDTM variable GeneralObservations.--GRPID", "type": "Root Data Element"}, "self": {"href": "/mdr/sdtm/1-3/classes/GeneralObservations/variables/--GRPID", "title": "Group ID", "type": "Class Variable"}}, "description": "Optional group identifier, used to link together a block of related records within a subject in a domain. Also used to link together a block of related records in the Trial Summary dataset (Section 3.4).", "label": "Group ID", "name": "--GRPID", "ordinal": "6", "role": "Identifier", "roleDescription": "Identifier", "simpleDatatype": "Char"}, {"_links": {"parentClass": {"href": "/mdr/sdtm/1-3/classes/GeneralObservations", "title": "General Observation Class", "type": "Class"}, "parentProduct": {"href": "/mdr/sdtm/1-3", "title": "Study Data Tabulation Model Version 1.3", "type": "Foundational Model"}, "priorVersion": {"href": "/mdr/sdtm/1-2/classes/GeneralObservations/variables/--REFID", "title": "Reference ID", "type": "Class Variable"}, "rootItem": {"href": "/mdr/root/sdtm/classes/GeneralObservations/variables/--REFID", "title": "Version-agnostic anchor resource for SDTM variable GeneralObservations.--REFID", "type": "Root Data Element"}, "self": {"href": "/mdr/sdtm/1-3/classes/GeneralObservations/variables/--REFID", "title": "Reference ID", "type": "Class Variable"}}, "description": "Optional internal or external identifier such as lab specimen ID, or UUID for an ECG waveform or a medical image.", "label": "Reference ID", "name": "--REFID", "ordinal": "7", "role": "Identifier", "roleDescription": "Identifier", "simpleDatatype": "Char"}, {"_links": {"parentClass": {"href": "/mdr/sdtm/1-3/classes/GeneralObservations", "title": "General Observation Class", "type": "Class"}, "parentProduct": {"href": "/mdr/sdtm/1-3", "title": "Study Data Tabulation Model Version 1.3", "type": "Foundational Model"}, "priorVersion": {"href": "/mdr/sdtm/1-2/classes/GeneralObservations/variables/--SPID", "title": "Sponsor ID", "type": "Class Variable"}, "rootItem": {"href": "/mdr/root/sdtm/classes/GeneralObservations/variables/--SPID", "title": "Version-agnostic anchor resource for SDTM variable GeneralObservations.--SPID", "type": "Root Data Element"}, "self": {"href": "/mdr/sdtm/1-3/classes/GeneralObservations/variables/--SPID", "title": "Sponsor ID", "type": "Class Variable"}}, "description": "Sponsor-defined identifier. Example: pre-printed line identifier on a Concomitant Medications page.", "label": "Sponsor ID", "name": "--SPID", "ordinal": "8", "role": "Identifier", "roleDescription": "Identifier", "simpleDatatype": "Char"}, {"_links": {"parentClass": {"href": "/mdr/sdtm/1-3/classes/GeneralObservations", "title": "General Observation Class", "type": "Class"}, "parentProduct": {"href": "/mdr/sdtm/1-3", "title": "Study Data Tabulation Model Version 1.3", "type": "Foundational Model"}, "rootItem": {"href": "/mdr/root/sdtm/classes/GeneralObservations/variables/--LNKID", "title": "Version-agnostic anchor resource for SDTM variable GeneralObservations.--LNKID", "type": "Root Data Element"}, "self": {"href": "/mdr/sdtm/1-3/classes/GeneralObservations/variables/--LNKID", "title": "Link ID", "type": "Class Variable"}}, "description": "Identifier used to link a feature (such as a tumor) initially recorded as a result in one findings domain to assessments of that feature in another findings domain. This may be a one-to-one or a one-to-many relationship. For Example: A single tumor may have multiple measurements/assessment performed at each study visit.", "label": "Link ID", "name": "--LNKID", "ordinal": "9", "role": "Identifier", "roleDescription": "Identifier", "simpleDatatype": "Char"}, {"_links": {"parentClass": {"href": "/mdr/sdtm/1-3/classes/GeneralObservations", "title": "General Observation Class", "type": "Class"}, "parentProduct": {"href": "/mdr/sdtm/1-3", "title": "Study Data Tabulation Model Version 1.3", "type": "Foundational Model"}, "rootItem": {"href": "/mdr/root/sdtm/classes/GeneralObservations/variables/--LNKGRP", "title": "Version-agnostic anchor resource for SDTM variable GeneralObservations.--LNKGRP", "type": "Root Data Element"}, "self": {"href": "/mdr/sdtm/1-3/classes/GeneralObservations/variables/--LNKGRP", "title": "Link Group ID", "type": "Class Variable"}}, "description": "A grouping identifier used to identify a group of assessment results in one domain that are evaluated, as a group, and contribute to a (summary) result in another domain. This will usually be a many-to-one relationship. For example: Multiple tumor measurements/assessments will contribute to a single response to therapy determination record.", "label": "Link Group ID", "name": "--LNKGRP", "ordinal": "10", "role": "Identifier", "roleDescription": "Identifier", "simpleDatatype": "Char"}, {"_links": {"parentClass": {"href": "/mdr/sdtm/1-3/classes/GeneralObservations", "title": "General Observation Class", "type": "Class"}, "parentProduct": {"href": "/mdr/sdtm/1-3", "title": "Study Data Tabulation Model Version 1.3", "type": "Foundational Model"}, "priorVersion": {"href": "/mdr/sdtm/1-2/classes/GeneralObservations/variables/VISITNUM", "title": "Visit Number", "type": "Class Variable"}, "rootItem": {"href": "/mdr/root/sdtm/classes/GeneralObservations/variables/VISITNUM", "title": "Version-agnostic anchor resource for SDTM variable GeneralObservations.VISITNUM", "type": "Root Data Element"}, "self": {"href": "/mdr/sdtm/1-3/classes/GeneralObservations/variables/VISITNUM", "title": "Visit Number", "type": "Class Variable"}}, "description": "Clinical encounter number. Numeric version of VISIT, used for sorting.", "label": "Visit Number", "name": "VISITNUM", "ordinal": "11", "role": "Timing", "roleDescription": "Timing", "simpleDatatype": "Num"}, {"_links": {"parentClass": {"href": "/mdr/sdtm/1-3/classes/GeneralObservations", "title": "General Observation Class", "type": "Class"}, "parentProduct": {"href": "/mdr/sdtm/1-3", "title": "Study Data Tabulation Model Version 1.3", "type": "Foundational Model"}, "priorVersion": {"href": "/mdr/sdtm/1-2/classes/GeneralObservations/variables/VISIT", "title": "Visit Name", "type": "Class Variable"}, "rootItem": {"href": "/mdr/root/sdtm/classes/GeneralObservations/variables/VISIT", "title": "Version-agnostic anchor resource for SDTM variable GeneralObservations.VISIT", "type": "Root Data Element"}, "self": {"href": "/mdr/sdtm/1-3/classes/GeneralObservations/variables/VISIT", "title": "Visit Name", "type": "Class Variable"}}, "description": "Protocol-defined description of a clinical encounter.", "label": "Visit Name", "name": "VISIT", "ordinal": "12", "role": "Timing", "roleDescription": "Timing", "simpleDatatype": "Char"}, {"_links": {"parentClass": {"href": "/mdr/sdtm/1-3/classes/GeneralObservations", "title": "General Observation Class", "type": "Class"}, "parentProduct": {"href": "/mdr/sdtm/1-3", "title": "Study Data Tabulation Model Version 1.3", "type": "Foundational Model"}, "priorVersion": {"href": "/mdr/sdtm/1-2/classes/GeneralObservations/variables/VISITDY", "title": "Planned Study Day of Visit", "type": "Class Variable"}, "rootItem": {"href": "/mdr/root/sdtm/classes/GeneralObservations/variables/VISITDY", "title": "Version-agnostic anchor resource for SDTM variable GeneralObservations.VISITDY", "type": "Root Data Element"}, "self": {"href": "/mdr/sdtm/1-3/classes/GeneralObservations/variables/VISITDY", "title": "Planned Study Day of Visit", "type": "Class Variable"}}, "description": "Planned study day of VISIT. Should be an integer.", "label": "Planned Study Day of Visit", "name": "VISITDY", "ordinal": "13", "role": "Timing", "roleDescription": "Timing", "simpleDatatype": "Num"}, {"_links": {"parentClass": {"href": "/mdr/sdtm/1-3/classes/GeneralObservations", "title": "General Observation Class", "type": "Class"}, "parentProduct": {"href": "/mdr/sdtm/1-3", "title": "Study Data Tabulation Model Version 1.3", "type": "Foundational Model"}, "priorVersion": {"href": "/mdr/sdtm/1-2/classes/GeneralObservations/variables/TAETORD", "title": "Planned Order of Elements within Arm", "type": "Class Variable"}, "rootItem": {"href": "/mdr/root/sdtm/classes/GeneralObservations/variables/TAETORD", "title": "Version-agnostic anchor resource for SDTM variable GeneralObservations.TAETORD", "type": "Root Data Element"}, "self": {"href": "/mdr/sdtm/1-3/classes/GeneralObservations/variables/TAETORD", "title": "Planned Order of Element within Arm", "type": "Class Variable"}}, "description": "Number that gives the planned order of the Element within the Arm (see Trial Arms, Section 3.2.2).", "label": "Planned Order of Element within Arm", "name": "TAETORD", "ordinal": "14", "role": "Timing", "roleDescription": "Timing", "simpleDatatype": "Num"}, {"_links": {"parentClass": {"href": "/mdr/sdtm/1-3/classes/GeneralObservations", "title": "General Observation Class", "type": "Class"}, "parentProduct": {"href": "/mdr/sdtm/1-3", "title": "Study Data Tabulation Model Version 1.3", "type": "Foundational Model"}, "priorVersion": {"href": "/mdr/sdtm/1-2/classes/GeneralObservations/variables/EPOCH", "title": "Epoch", "type": "Class Variable"}, "rootItem": {"href": "/mdr/root/sdtm/classes/GeneralObservations/variables/EPOCH", "title": "Version-agnostic anchor resource for SDTM variable GeneralObservations.EPOCH", "type": "Root Data Element"}, "self": {"href": "/mdr/sdtm/1-3/classes/GeneralObservations/variables/EPOCH", "title": "Epoch", "type": "Class Variable"}}, "description": "Epoch associated with the start date/time of the observation, or the date/time of collection if start date/time is not collected. (See Section 3.2.2.).", "label": "Epoch", "name": "EPOCH", "ordinal": "15", "role": "Timing", "roleDescription": "Timing", "simpleDatatype": "Char"}, {"_links": {"parentClass": {"href": "/mdr/sdtm/1-3/classes/GeneralObservations", "title": "General Observation Class", "type": "Class"}, "parentProduct": {"href": "/mdr/sdtm/1-3", "title": "Study Data Tabulation Model Version 1.3", "type": "Foundational Model"}, "priorVersion": {"href": "/mdr/sdtm/1-2/classes/GeneralObservations/variables/--DTC", "title": "Date/Time of Collection", "type": "Class Variable"}, "rootItem": {"href": "/mdr/root/sdtm/classes/GeneralObservations/variables/--DTC", "title": "Version-agnostic anchor resource for SDTM variable GeneralObservations.--DTC", "type": "Root Data Element"}, "self": {"href": "/mdr/sdtm/1-3/classes/GeneralObservations/variables/--DTC", "title": "Date/Time of Collection", "type": "Class Variable"}}, "description": "Collection date and time of an observation represented in IS0 8601 character format.", "label": "Date/Time of Collection", "name": "--DTC", "ordinal": "16", "role": "Timing", "roleDescription": "Timing", "simpleDatatype": "Char"}, {"_links": {"parentClass": {"href": "/mdr/sdtm/1-3/classes/GeneralObservations", "title": "General Observation Class", "type": "Class"}, "parentProduct": {"href": "/mdr/sdtm/1-3", "title": "Study Data Tabulation Model Version 1.3", "type": "Foundational Model"}, "priorVersion": {"href": "/mdr/sdtm/1-2/classes/GeneralObservations/variables/--STDTC", "title": "Start Date/Time of Observation", "type": "Class Variable"}, "rootItem": {"href": "/mdr/root/sdtm/classes/GeneralObservations/variables/--STDTC", "title": "Version-agnostic anchor resource for SDTM variable GeneralObservations.--STDTC", "type": "Root Data Element"}, "self": {"href": "/mdr/sdtm/1-3/classes/GeneralObservations/variables/--STDTC", "title": "Start Date/Time of Observation", "type": "Class Variable"}}, "description": "Start date/time of an observation represented in IS0 8601 character format.", "label": "Start Date/Time of Observation", "name": "--STDTC", "ordinal": "17", "role": "Timing", "roleDescription": "Timing", "simpleDatatype": "Char"}, {"_links": {"parentClass": {"href": "/mdr/sdtm/1-3/classes/GeneralObservations", "title": "General Observation Class", "type": "Class"}, "parentProduct": {"href": "/mdr/sdtm/1-3", "title": "Study Data Tabulation Model Version 1.3", "type": "Foundational Model"}, "priorVersion": {"href": "/mdr/sdtm/1-2/classes/GeneralObservations/variables/--ENDTC", "title": "End Date/Time of Observation", "type": "Class Variable"}, "rootItem": {"href": "/mdr/root/sdtm/classes/GeneralObservations/variables/--ENDTC", "title": "Version-agnostic anchor resource for SDTM variable GeneralObservations.--ENDTC", "type": "Root Data Element"}, "self": {"href": "/mdr/sdtm/1-3/classes/GeneralObservations/variables/--ENDTC", "title": "End Date/Time of Observation", "type": "Class Variable"}}, "description": "End date/time of the observation represented in IS0 8601 character format.", "label": "End Date/Time of Observation", "name": "--ENDTC", "ordinal": "18", "role": "Timing", "roleDescription": "Timing", "simpleDatatype": "Char"}, {"_links": {"parentClass": {"href": "/mdr/sdtm/1-3/classes/GeneralObservations", "title": "General Observation Class", "type": "Class"}, "parentProduct": {"href": "/mdr/sdtm/1-3", "title": "Study Data Tabulation Model Version 1.3", "type": "Foundational Model"}, "priorVersion": {"href": "/mdr/sdtm/1-2/classes/GeneralObservations/variables/--DY", "title": "Study Day of Visit/Collection/Exam", "type": "Class Variable"}, "rootItem": {"href": "/mdr/root/sdtm/classes/GeneralObservations/variables/--DY", "title": "Version-agnostic anchor resource for SDTM variable GeneralObservations.--DY", "type": "Root Data Element"}, "self": {"href": "/mdr/sdtm/1-3/classes/GeneralObservations/variables/--DY", "title": "Study Day of Visit/Collection/Exam", "type": "Class Variable"}}, "description": "Actual study day of visit/collection/exam expressed in integer days relative to the sponsor-defined RFSTDTC in Demographics.", "label": "Study Day of Visit/Collection/Exam", "name": "--DY", "ordinal": "19", "role": "Timing", "roleDescription": "Timing", "simpleDatatype": "Num"}, {"_links": {"parentClass": {"href": "/mdr/sdtm/1-3/classes/GeneralObservations", "title": "General Observation Class", "type": "Class"}, "parentProduct": {"href": "/mdr/sdtm/1-3", "title": "Study Data Tabulation Model Version 1.3", "type": "Foundational Model"}, "priorVersion": {"href": "/mdr/sdtm/1-2/classes/GeneralObservations/variables/--STDY", "title": "Study Day of Start of Observation", "type": "Class Variable"}, "rootItem": {"href": "/mdr/root/sdtm/classes/GeneralObservations/variables/--STDY", "title": "Version-agnostic anchor resource for SDTM variable GeneralObservations.--STDY", "type": "Root Data Element"}, "self": {"href": "/mdr/sdtm/1-3/classes/GeneralObservations/variables/--STDY", "title": "Study Day of Start of Observation", "type": "Class Variable"}}, "description": "Actual study day of start of observation expressed in integer days relative to the sponsor-defined RFSTDTC in Demographics.", "label": "Study Day of Start of Observation", "name": "--STDY", "ordinal": "20", "role": "Timing", "roleDescription": "Timing", "simpleDatatype": "Num"}, {"_links": {"parentClass": {"href": "/mdr/sdtm/1-3/classes/GeneralObservations", "title": "General Observation Class", "type": "Class"}, "parentProduct": {"href": "/mdr/sdtm/1-3", "title": "Study Data Tabulation Model Version 1.3", "type": "Foundational Model"}, "priorVersion": {"href": "/mdr/sdtm/1-2/classes/GeneralObservations/variables/--ENDY", "title": "Study Day of End of Observation", "type": "Class Variable"}, "rootItem": {"href": "/mdr/root/sdtm/classes/GeneralObservations/variables/--ENDY", "title": "Version-agnostic anchor resource for SDTM variable GeneralObservations.--ENDY", "type": "Root Data Element"}, "self": {"href": "/mdr/sdtm/1-3/classes/GeneralObservations/variables/--ENDY", "title": "Study Day of End of Observation", "type": "Class Variable"}}, "description": "Actual study day of end of observation expressed in integer days relative to the sponsor-defined RFSTDTC in Demographics.", "label": "Study Day of End of Observation", "name": "--ENDY", "ordinal": "21", "role": "Timing", "roleDescription": "Timing", "simpleDatatype": "Num"}, {"_links": {"parentClass": {"href": "/mdr/sdtm/1-3/classes/GeneralObservations", "title": "General Observation Class", "type": "Class"}, "parentProduct": {"href": "/mdr/sdtm/1-3", "title": "Study Data Tabulation Model Version 1.3", "type": "Foundational Model"}, "priorVersion": {"href": "/mdr/sdtm/1-2/classes/GeneralObservations/variables/--DUR", "title": "Duration", "type": "Class Variable"}, "rootItem": {"href": "/mdr/root/sdtm/classes/GeneralObservations/variables/--DUR", "title": "Version-agnostic anchor resource for SDTM variable GeneralObservations.--DUR", "type": "Root Data Element"}, "self": {"href": "/mdr/sdtm/1-3/classes/GeneralObservations/variables/--DUR", "title": "Duration", "type": "Class Variable"}}, "description": "Collected duration of an event, intervention, or finding represented in ISO 8601 character format. Used only if collected on the CRF and not derived.", "label": "Duration", "name": "--DUR", "ordinal": "22", "role": "Timing", "roleDescription": "Timing", "simpleDatatype": "Char"}, {"_links": {"parentClass": {"href": "/mdr/sdtm/1-3/classes/GeneralObservations", "title": "General Observation Class", "type": "Class"}, "parentProduct": {"href": "/mdr/sdtm/1-3", "title": "Study Data Tabulation Model Version 1.3", "type": "Foundational Model"}, "priorVersion": {"href": "/mdr/sdtm/1-2/classes/GeneralObservations/variables/--TPT", "title": "Planned Time Point Name", "type": "Class Variable"}, "rootItem": {"href": "/mdr/root/sdtm/classes/GeneralObservations/variables/--TPT", "title": "Version-agnostic anchor resource for SDTM variable GeneralObservations.--TPT", "type": "Root Data Element"}, "self": {"href": "/mdr/sdtm/1-3/classes/GeneralObservations/variables/--TPT", "title": "Planned Time Point Name", "type": "Class Variable"}}, "description": "Text description of time when a measurement or observation should be taken as defined in the protocol. This may be represented as an elapsed time relative to a fixed reference point, such as time of last dose. See --TPTNUM and --TPTREF.", "label": "Planned Time Point Name", "name": "--TPT", "ordinal": "23", "role": "Timing", "roleDescription": "Timing", "simpleDatatype": "Char"}, {"_links": {"parentClass": {"href": "/mdr/sdtm/1-3/classes/GeneralObservations", "title": "General Observation Class", "type": "Class"}, "parentProduct": {"href": "/mdr/sdtm/1-3", "title": "Study Data Tabulation Model Version 1.3", "type": "Foundational Model"}, "priorVersion": {"href": "/mdr/sdtm/1-2/classes/GeneralObservations/variables/--TPTNUM", "title": "Planned Time Point Number", "type": "Class Variable"}, "rootItem": {"href": "/mdr/root/sdtm/classes/GeneralObservations/variables/--TPTNUM", "title": "Version-agnostic anchor resource for SDTM variable GeneralObservations.--TPTNUM", "type": "Root Data Element"}, "self": {"href": "/mdr/sdtm/1-3/classes/GeneralObservations/variables/--TPTNUM", "title": "Planned Time Point Number", "type": "Class Variable"}}, "description": "Numeric version of planned time point used in sorting.", "label": "Planned Time Point Number", "name": "--TPTNUM", "ordinal": "24", "role": "Timing", "roleDescription": "Timing", "simpleDatatype": "Num"}, {"_links": {"parentClass": {"href": "/mdr/sdtm/1-3/classes/GeneralObservations", "title": "General Observation Class", "type": "Class"}, "parentProduct": {"href": "/mdr/sdtm/1-3", "title": "Study Data Tabulation Model Version 1.3", "type": "Foundational Model"}, "priorVersion": {"href": "/mdr/sdtm/1-2/classes/GeneralObservations/variables/--ELTM", "title": "Planned Elapsed Time from Time Point Ref", "type": "Class Variable"}, "rootItem": {"href": "/mdr/root/sdtm/classes/GeneralObservations/variables/--ELTM", "title": "Version-agnostic anchor resource for SDTM variable GeneralObservations.--ELTM", "type": "Root Data Element"}, "self": {"href": "/mdr/sdtm/1-3/classes/GeneralObservations/variables/--ELTM", "title": "Planned Elapsed Time from Time Point Ref", "type": "Class Variable"}}, "description": "Planned Elapsed time in ISO 8601 character format relative to a planned fixed reference (--TPTREF) such as \"Previous Dose\" or \"Previous Meal\". This variable is useful where there are repetitive measures. Not a clock time or a date/time variable, but an interval, represented as ISO duration.", "label": "Planned Elapsed Time from Time Point Ref", "name": "--ELTM", "ordinal": "25", "role": "Timing", "roleDescription": "Timing", "simpleDatatype": "Char"}, {"_links": {"parentClass": {"href": "/mdr/sdtm/1-3/classes/GeneralObservations", "title": "General Observation Class", "type": "Class"}, "parentProduct": {"href": "/mdr/sdtm/1-3", "title": "Study Data Tabulation Model Version 1.3", "type": "Foundational Model"}, "priorVersion": {"href": "/mdr/sdtm/1-2/classes/GeneralObservations/variables/--TPTREF", "title": "Time Point Reference", "type": "Class Variable"}, "rootItem": {"href": "/mdr/root/sdtm/classes/GeneralObservations/variables/--TPTREF", "title": "Version-agnostic anchor resource for SDTM variable GeneralObservations.--TPTREF", "type": "Root Data Element"}, "self": {"href": "/mdr/sdtm/1-3/classes/GeneralObservations/variables/--TPTREF", "title": "Time Point Reference", "type": "Class Variable"}}, "description": "Description of the fixed reference point referred to by --ELTM, --TPTNUM, and --TPT. Examples: PREVIOUS DOSE, PREVIOUS MEAL.", "label": "Time Point Reference", "name": "--TPTREF", "ordinal": "26", "role": "Timing", "roleDescription": "Timing", "simpleDatatype": "Char"}, {"_links": {"parentClass": {"href": "/mdr/sdtm/1-3/classes/GeneralObservations", "title": "General Observation Class", "type": "Class"}, "parentProduct": {"href": "/mdr/sdtm/1-3", "title": "Study Data Tabulation Model Version 1.3", "type": "Foundational Model"}, "priorVersion": {"href": "/mdr/sdtm/1-2/classes/GeneralObservations/variables/--RFTDTC", "title": "Date/Time of Reference Time Point", "type": "Class Variable"}, "rootItem": {"href": "/mdr/root/sdtm/classes/GeneralObservations/variables/--RFTDTC", "title": "Version-agnostic anchor resource for SDTM variable GeneralObservations.--RFTDTC", "type": "Root Data Element"}, "self": {"href": "/mdr/sdtm/1-3/classes/GeneralObservations/variables/--RFTDTC", "title": "Date/Time of Reference Time Point", "type": "Class Variable"}}, "description": "Date/time for a fixed reference time point defined by --TPTREF in ISO 8601 character format.", "label": "Date/Time of Reference Time Point", "name": "--RFTDTC", "ordinal": "27", "role": "Timing", "roleDescription": "Timing", "simpleDatatype": "Char"}, {"_links": {"parentClass": {"href": "/mdr/sdtm/1-3/classes/GeneralObservations", "title": "General Observation Class", "type": "Class"}, "parentProduct": {"href": "/mdr/sdtm/1-3", "title": "Study Data Tabulation Model Version 1.3", "type": "Foundational Model"}, "priorVersion": {"href": "/mdr/sdtm/1-2/classes/GeneralObservations/variables/--STRF", "title": "Start Relative to Reference Period", "type": "Class Variable"}, "rootItem": {"href": "/mdr/root/sdtm/classes/GeneralObservations/variables/--STRF", "title": "Version-agnostic anchor resource for SDTM variable GeneralObservations.--STRF", "type": "Root Data Element"}, "self": {"href": "/mdr/sdtm/1-3/classes/GeneralObservations/variables/--STRF", "title": "Start Relative to Reference Period", "type": "Class Variable"}}, "description": "Identifies the start of the observation as being before, during, or after the sponsor-defined reference period. The sponsor-defined reference period is a continuous period of time defined by a discrete starting point and a discrete ending point represented by RFSTDTC and RFENDTC in Demographics.", "label": "Start Relative to Reference Period", "name": "--STRF", "ordinal": "28", "role": "Timing", "roleDescription": "Timing", "simpleDatatype": "Char"}, {"_links": {"parentClass": {"href": "/mdr/sdtm/1-3/classes/GeneralObservations", "title": "General Observation Class", "type": "Class"}, "parentProduct": {"href": "/mdr/sdtm/1-3", "title": "Study Data Tabulation Model Version 1.3", "type": "Foundational Model"}, "priorVersion": {"href": "/mdr/sdtm/1-2/classes/GeneralObservations/variables/--ENRF", "title": "End Relative to Reference Period", "type": "Class Variable"}, "rootItem": {"href": "/mdr/root/sdtm/classes/GeneralObservations/variables/--ENRF", "title": "Version-agnostic anchor resource for SDTM variable GeneralObservations.--ENRF", "type": "Root Data Element"}, "self": {"href": "/mdr/sdtm/1-3/classes/GeneralObservations/variables/--ENRF", "title": "End Relative to Reference Period", "type": "Class Variable"}}, "description": "Identifies the end of the observation as being before, during or after the sponsor-defined reference period. The sponsor-defined reference period is a continuous period of time defined by a discrete starting point and a discrete ending point represented by RFSTDTC and RFENDTC in Demographics.", "label": "End Relative to Reference Period", "name": "--ENRF", "ordinal": "29", "role": "Timing", "roleDescription": "Timing", "simpleDatatype": "Char"}, {"_links": {"parentClass": {"href": "/mdr/sdtm/1-3/classes/GeneralObservations", "title": "General Observation Class", "type": "Class"}, "parentProduct": {"href": "/mdr/sdtm/1-3", "title": "Study Data Tabulation Model Version 1.3", "type": "Foundational Model"}, "priorVersion": {"href": "/mdr/sdtm/1-2/classes/GeneralObservations/variables/--EVLINT", "title": "Evaluation Interval", "type": "Class Variable"}, "rootItem": {"href": "/mdr/root/sdtm/classes/GeneralObservations/variables/--EVLINT", "title": "Version-agnostic anchor resource for SDTM variable GeneralObservations.--EVLINT", "type": "Root Data Element"}, "self": {"href": "/mdr/sdtm/1-3/classes/GeneralObservations/variables/--EVLINT", "title": "Evaluation Interval", "type": "Class Variable"}}, "description": "Duration of interval associated with an observation such as a finding --TESTCD, represented in ISO 8601 character format. Example: -P2M to represent a period of the past 2 months as the evaluation interval for a question from a questionnaire such as SF-36.", "label": "Evaluation Interval", "name": "--EVLINT", "ordinal": "30", "role": "Timing", "roleDescription": "Timing", "simpleDatatype": "Char"}, {"_links": {"parentClass": {"href": "/mdr/sdtm/1-3/classes/GeneralObservations", "title": "General Observation Class", "type": "Class"}, "parentProduct": {"href": "/mdr/sdtm/1-3", "title": "Study Data Tabulation Model Version 1.3", "type": "Foundational Model"}, "priorVersion": {"href": "/mdr/sdtm/1-2/classes/GeneralObservations/variables/--STRTPT", "title": "Start Relative to Reference Time Point", "type": "Class Variable"}, "rootItem": {"href": "/mdr/root/sdtm/classes/GeneralObservations/variables/--STRTPT", "title": "Version-agnostic anchor resource for SDTM variable GeneralObservations.--STRTPT", "type": "Root Data Element"}, "self": {"href": "/mdr/sdtm/1-3/classes/GeneralObservations/variables/--STRTPT", "title": "Start Relative to Reference Time Point", "type": "Class Variable"}}, "description": "Identifies the start of the observation as being before or after the sponsor-defined reference time point defined by variable --STTPT.", "label": "Start Relative to Reference Time Point", "name": "--STRTPT", "ordinal": "31", "role": "Timing", "roleDescription": "Timing", "simpleDatatype": "Char"}, {"_links": {"parentClass": {"href": "/mdr/sdtm/1-3/classes/GeneralObservations", "title": "General Observation Class", "type": "Class"}, "parentProduct": {"href": "/mdr/sdtm/1-3", "title": "Study Data Tabulation Model Version 1.3", "type": "Foundational Model"}, "priorVersion": {"href": "/mdr/sdtm/1-2/classes/GeneralObservations/variables/--STTPT", "title": "Start Reference Time Point", "type": "Class Variable"}, "rootItem": {"href": "/mdr/root/sdtm/classes/GeneralObservations/variables/--STTPT", "title": "Version-agnostic anchor resource for SDTM variable GeneralObservations.--STTPT", "type": "Root Data Element"}, "self": {"href": "/mdr/sdtm/1-3/classes/GeneralObservations/variables/--STTPT", "title": "Start Reference Time Point", "type": "Class Variable"}}, "description": "Description or date/time in ISO 8601 or other character format of the sponsor-defined reference point referred to by --STRTPT. Examples: \"2003-12-15\" or \"VISIT 1\".", "label": "Start Reference Time Point", "name": "--STTPT", "ordinal": "32", "role": "Timing", "roleDescription": "Timing", "simpleDatatype": "Char"}, {"_links": {"parentClass": {"href": "/mdr/sdtm/1-3/classes/GeneralObservations", "title": "General Observation Class", "type": "Class"}, "parentProduct": {"href": "/mdr/sdtm/1-3", "title": "Study Data Tabulation Model Version 1.3", "type": "Foundational Model"}, "priorVersion": {"href": "/mdr/sdtm/1-2/classes/GeneralObservations/variables/--ENRTPT", "title": "End Relative to Reference Time Point", "type": "Class Variable"}, "rootItem": {"href": "/mdr/root/sdtm/classes/GeneralObservations/variables/--ENRTPT", "title": "Version-agnostic anchor resource for SDTM variable GeneralObservations.--ENRTPT", "type": "Root Data Element"}, "self": {"href": "/mdr/sdtm/1-3/classes/GeneralObservations/variables/--ENRTPT", "title": "End Relative to Reference Time Point", "type": "Class Variable"}}, "description": "Identifies the end of the observation as being before or after the sponsor-defined reference time point defined by variable --ENTPT.", "label": "End Relative to Reference Time Point", "name": "--ENRTPT", "ordinal": "33", "role": "Timing", "roleDescription": "Timing", "simpleDatatype": "Char"}, {"_links": {"parentClass": {"href": "/mdr/sdtm/1-3/classes/GeneralObservations", "title": "General Observation Class", "type": "Class"}, "parentProduct": {"href": "/mdr/sdtm/1-3", "title": "Study Data Tabulation Model Version 1.3", "type": "Foundational Model"}, "priorVersion": {"href": "/mdr/sdtm/1-2/classes/GeneralObservations/variables/--ENTPT", "title": "End Reference Time Point", "type": "Class Variable"}, "rootItem": {"href": "/mdr/root/sdtm/classes/GeneralObservations/variables/--ENTPT", "title": "Version-agnostic anchor resource for SDTM variable GeneralObservations.--ENTPT", "type": "Root Data Element"}, "self": {"href": "/mdr/sdtm/1-3/classes/GeneralObservations/variables/--ENTPT", "title": "End Reference Time Point", "type": "Class Variable"}}, "description": "Description or date/time in ISO 8601 or other character format of the sponsor-defined reference point referred to by --ENRTPT. Examples: \"2003-12-25\" or \"VISIT 2\".", "label": "End Reference Time Point", "name": "--ENTPT", "ordinal": "34", "role": "Timing", "roleDescription": "Timing", "simpleDatatype": "Char"}, {"_links": {"parentClass": {"href": "/mdr/sdtm/1-3/classes/GeneralObservations", "title": "General Observation Class", "type": "Class"}, "parentProduct": {"href": "/mdr/sdtm/1-3", "title": "Study Data Tabulation Model Version 1.3", "type": "Foundational Model"}, "rootItem": {"href": "/mdr/root/sdtm/classes/GeneralObservations/variables/--DETECT", "title": "Version-agnostic anchor resource for SDTM variable GeneralObservations.--DETECT", "type": "Root Data Element"}, "self": {"href": "/mdr/sdtm/1-3/classes/GeneralObservations/variables/--DETECT", "title": "Time in Days to Detection", "type": "Class Variable"}}, "description": "The number of days from the start of dosing to the earliest detection of a condition or pathogen.", "label": "Time in Days to Detection", "name": "--DETECT", "ordinal": "35", "role": "Timing", "roleDescription": "Timing", "simpleDatatype": "Num"}], "description": "The majority of observations collected during a study can be divided among three general classes: Interventions, Events, or Findings.  Datasets based on any of the general observation classes share a set of common Identifier and Timing variables. As a general rule, any valid Identifier or Timing variable is permissible for use in any submission dataset based on a general observation class. (Source: SDTM v1.3, Section 2.2)", "label": "General Observation Class", "name": "General Observations", "ordinal": "1"}, {"_links": {"parentClass": {"href": "/mdr/sdtm/1-3/classes/GeneralObservations", "title": "General Observation Class", "type": "Class"}, "parentProduct": {"href": "/mdr/sdtm/1-3", "title": "Study Data Tabulation Model Version 1.3", "type": "Foundational Model"}, "priorVersion": {"href": "/mdr/sdtm/1-2/classes/Interventions", "title": "Interventions Observation Class", "type": "Class"}, "self": {"href": "/mdr/sdtm/1-3/classes/Interventions", "title": "Interventions Observation Class", "type": "Class"}}, "classVariables": [{"_links": {"parentClass": {"href": "/mdr/sdtm/1-3/classes/Interventions", "title": "Interventions Observation Class", "type": "Class"}, "parentProduct": {"href": "/mdr/sdtm/1-3", "title": "Study Data Tabulation Model Version 1.3", "type": "Foundational Model"}, "priorVersion": {"href": "/mdr/sdtm/1-2/classes/Interventions/variables/--TRT", "title": "Name of Treatment", "type": "Class Variable"}, "rootItem": {"href": "/mdr/root/sdtm/classes/Interventions/variables/--TRT", "title": "Version-agnostic anchor resource for SDTM variable Interventions.--TRT", "type": "Root Data Element"}, "self": {"href": "/mdr/sdtm/1-3/classes/Interventions/variables/--TRT", "title": "Name of Treatment", "type": "Class Variable"}}, "description": "The topic for the intervention observation, usually the verbatim name of the treatment, drug, medicine, or therapy given during the dosing interval for the observation.", "label": "Name of Treatment", "name": "--TRT", "ordinal": "1", "role": "Topic", "roleDescription": "Topic", "simpleDatatype": "Char"}, {"_links": {"parentClass": {"href": "/mdr/sdtm/1-3/classes/Interventions", "title": "Interventions Observation Class", "type": "Class"}, "parentProduct": {"href": "/mdr/sdtm/1-3", "title": "Study Data Tabulation Model Version 1.3", "type": "Foundational Model"}, "priorVersion": {"href": "/mdr/sdtm/1-2/classes/Interventions/variables/--MODIFY", "title": "Modified Treatment Name", "type": "Class Variable"}, "qualifiesVariables": [{"href": "/mdr/sdtm/1-3/classes/Interventions/variables/--TRT", "title": "Name of Treatment", "type": "Class Variable"}], "rootItem": {"href": "/mdr/root/sdtm/classes/Interventions/variables/--MODIFY", "title": "Version-agnostic anchor resource for SDTM variable Interventions.--MODIFY", "type": "Root Data Element"}, "self": {"href": "/mdr/sdtm/1-3/classes/Interventions/variables/--MODIFY", "title": "Modified Treatment Name", "type": "Class Variable"}}, "description": "If the value for --TRT is modified for coding purposes, then the modified text is placed here.", "label": "Modified Treatment Name", "name": "--MODIFY", "ordinal": "2", "role": "Synonym Qualifier", "roleDescription": "Synonym Qualifier of --TRT", "simpleDatatype": "Char"}, {"_links": {"parentClass": {"href": "/mdr/sdtm/1-3/classes/Interventions", "title": "Interventions Observation Class", "type": "Class"}, "parentProduct": {"href": "/mdr/sdtm/1-3", "title": "Study Data Tabulation Model Version 1.3", "type": "Foundational Model"}, "priorVersion": {"href": "/mdr/sdtm/1-2/classes/Interventions/variables/--DECOD", "title": "Standardized Treatment Name", "type": "Class Variable"}, "qualifiesVariables": [{"href": "/mdr/sdtm/1-3/classes/Interventions/variables/--TRT", "title": "Name of Treatment", "type": "Class Variable"}], "rootItem": {"href": "/mdr/root/sdtm/classes/Interventions/variables/--DECOD", "title": "Version-agnostic anchor resource for SDTM variable Interventions.--DECOD", "type": "Root Data Element"}, "self": {"href": "/mdr/sdtm/1-3/classes/Interventions/variables/--DECOD", "title": "Standardized Treatment Name", "type": "Class Variable"}}, "description": "Standardized or dictionary-derived name of the topic variable, --TRT, or the modified topic variable (--MODIFY), if applicable. Equivalent to the generic drug name in WHO Drug, or a term in SNOMED, ICD9, or other published or sponsor-defined dictionaries.", "label": "Standardized Treatment Name", "name": "--DECOD", "ordinal": "3", "role": "Synonym Qualifier", "roleDescription": "Synonym Qualifier of --TRT", "simpleDatatype": "Char"}, {"_links": {"parentClass": {"href": "/mdr/sdtm/1-3/classes/Interventions", "title": "Interventions Observation Class", "type": "Class"}, "parentProduct": {"href": "/mdr/sdtm/1-3", "title": "Study Data Tabulation Model Version 1.3", "type": "Foundational Model"}, "priorVersion": {"href": "/mdr/sdtm/1-2/classes/Interventions/variables/--CAT", "title": "Category", "type": "Class Variable"}, "rootItem": {"href": "/mdr/root/sdtm/classes/Interventions/variables/--CAT", "title": "Version-agnostic anchor resource for SDTM variable Interventions.--CAT", "type": "Root Data Element"}, "self": {"href": "/mdr/sdtm/1-3/classes/Interventions/variables/--CAT", "title": "Category", "type": "Class Variable"}}, "description": "Used to define a category of topic-variable values.", "label": "Category", "name": "--CAT", "ordinal": "4", "role": "Grouping Qualifier", "roleDescription": "Grouping Qualifier", "simpleDatatype": "Char"}, {"_links": {"parentClass": {"href": "/mdr/sdtm/1-3/classes/Interventions", "title": "Interventions Observation Class", "type": "Class"}, "parentProduct": {"href": "/mdr/sdtm/1-3", "title": "Study Data Tabulation Model Version 1.3", "type": "Foundational Model"}, "priorVersion": {"href": "/mdr/sdtm/1-2/classes/Interventions/variables/--SCAT", "title": "Subcategory", "type": "Class Variable"}, "rootItem": {"href": "/mdr/root/sdtm/classes/Interventions/variables/--SCAT", "title": "Version-agnostic anchor resource for SDTM variable Interventions.--SCAT", "type": "Root Data Element"}, "self": {"href": "/mdr/sdtm/1-3/classes/Interventions/variables/--SCAT", "title": "Subcategory", "type": "Class Variable"}}, "description": "Used to define a further categorization of --CAT values.", "label": "Subcategory", "name": "--SCAT", "ordinal": "5", "role": "Grouping Qualifier", "roleDescription": "Grouping Qualifier", "simpleDatatype": "Char"}, {"_links": {"parentClass": {"href": "/mdr/sdtm/1-3/classes/Interventions", "title": "Interventions Observation Class", "type": "Class"}, "parentProduct": {"href": "/mdr/sdtm/1-3", "title": "Study Data Tabulation Model Version 1.3", "type": "Foundational Model"}, "priorVersion": {"href": "/mdr/sdtm/1-2/classes/Interventions/variables/--PRESP", "title": "Pre-specified", "type": "Class Variable"}, "qualifiesVariables": [{"href": "/mdr/sdtm/1-3/classes/Interventions/variables/--TRT", "title": "Name of Treatment", "type": "Class Variable"}], "rootItem": {"href": "/mdr/root/sdtm/classes/Interventions/variables/--PRESP", "title": "Version-agnostic anchor resource for SDTM variable Interventions.--PRESP", "type": "Root Data Element"}, "self": {"href": "/mdr/sdtm/1-3/classes/Interventions/variables/--PRESP", "title": "Pre-specified", "type": "Class Variable"}}, "description": "Used when a specific intervention is pre-specified on a CRF. Values should be \"Y\" or null", "label": "Pre-specified", "name": "--PRESP", "ordinal": "6", "role": "Variable Qualifier", "roleDescription": "Variable Qualifier of --TRT", "simpleDatatype": "Char"}, {"_links": {"parentClass": {"href": "/mdr/sdtm/1-3/classes/Interventions", "title": "Interventions Observation Class", "type": "Class"}, "parentProduct": {"href": "/mdr/sdtm/1-3", "title": "Study Data Tabulation Model Version 1.3", "type": "Foundational Model"}, "priorVersion": {"href": "/mdr/sdtm/1-2/classes/Interventions/variables/--OCCUR", "title": "Occurrence", "type": "Class Variable"}, "rootItem": {"href": "/mdr/root/sdtm/classes/Interventions/variables/--OCCUR", "title": "Version-agnostic anchor resource for SDTM variable Interventions.--OCCUR", "type": "Root Data Element"}, "self": {"href": "/mdr/sdtm/1-3/classes/Interventions/variables/--OCCUR", "title": "Occurrence", "type": "Class Variable"}}, "description": "Used to record whether a pre-specified intervention occurred when information about the occurrence of a specific intervention is solicited.", "label": "Occurrence", "name": "--OCCUR", "ordinal": "7", "role": "Record Qualifier", "roleDescription": "Record Qualifier", "simpleDatatype": "Char"}, {"_links": {"parentClass": {"href": "/mdr/sdtm/1-3/classes/Interventions", "title": "Interventions Observation Class", "type": "Class"}, "parentProduct": {"href": "/mdr/sdtm/1-3", "title": "Study Data Tabulation Model Version 1.3", "type": "Foundational Model"}, "priorVersion": {"href": "/mdr/sdtm/1-2/classes/Interventions/variables/--STAT", "title": "Completion Status", "type": "Class Variable"}, "rootItem": {"href": "/mdr/root/sdtm/classes/Interventions/variables/--STAT", "title": "Version-agnostic anchor resource for SDTM variable Interventions.--STAT", "type": "Root Data Element"}, "self": {"href": "/mdr/sdtm/1-3/classes/Interventions/variables/--STAT", "title": "Completion Status", "type": "Class Variable"}}, "description": "Used to indicate when a question about the occurrence of a pre-specified intervention was not answered. Should be null or have a value of NOT DONE.", "label": "Completion Status", "name": "--STAT", "ordinal": "8", "role": "Record Qualifier", "roleDescription": "Record Qualifier", "simpleDatatype": "Char"}, {"_links": {"parentClass": {"href": "/mdr/sdtm/1-3/classes/Interventions", "title": "Interventions Observation Class", "type": "Class"}, "parentProduct": {"href": "/mdr/sdtm/1-3", "title": "Study Data Tabulation Model Version 1.3", "type": "Foundational Model"}, "priorVersion": {"href": "/mdr/sdtm/1-2/classes/Interventions/variables/--REASND", "title": "Reason Not Done", "type": "Class Variable"}, "rootItem": {"href": "/mdr/root/sdtm/classes/Interventions/variables/--REASND", "title": "Version-agnostic anchor resource for SDTM variable Interventions.--REASND", "type": "Root Data Element"}, "self": {"href": "/mdr/sdtm/1-3/classes/Interventions/variables/--REASND", "title": "Reason Not Done", "type": "Class Variable"}}, "description": "Reason not done. Used in conjunction with --STAT when value is NOT DONE.", "label": "Reason Not Done", "name": "--REASND", "ordinal": "9", "role": "Record Qualifier", "roleDescription": "Record Qualifier", "simpleDatatype": "Char"}, {"_links": {"parentClass": {"href": "/mdr/sdtm/1-3/classes/Interventions", "title": "Interventions Observation Class", "type": "Class"}, "parentProduct": {"href": "/mdr/sdtm/1-3", "title": "Study Data Tabulation Model Version 1.3", "type": "Foundational Model"}, "priorVersion": {"href": "/mdr/sdtm/1-2/classes/Interventions/variables/--INDC", "title": "Indication", "type": "Class Variable"}, "rootItem": {"href": "/mdr/root/sdtm/classes/Interventions/variables/--INDC", "title": "Version-agnostic anchor resource for SDTM variable Interventions.--INDC", "type": "Root Data Element"}, "self": {"href": "/mdr/sdtm/1-3/classes/Interventions/variables/--INDC", "title": "Indication", "type": "Class Variable"}}, "description": "Denotes the indication for the intervention (e.g., why the therapy was taken or administered).", "label": "Indication", "name": "--INDC", "ordinal": "10", "role": "Record Qualifier", "roleDescription": "Record Qualifier", "simpleDatatype": "Char"}, {"_links": {"parentClass": {"href": "/mdr/sdtm/1-3/classes/Interventions", "title": "Interventions Observation Class", "type": "Class"}, "parentProduct": {"href": "/mdr/sdtm/1-3", "title": "Study Data Tabulation Model Version 1.3", "type": "Foundational Model"}, "priorVersion": {"href": "/mdr/sdtm/1-2/classes/Interventions/variables/--CLAS", "title": "Class", "type": "Class Variable"}, "qualifiesVariables": [{"href": "/mdr/sdtm/1-3/classes/Interventions/variables/--TRT", "title": "Name of Treatment", "type": "Class Variable"}], "rootItem": {"href": "/mdr/root/sdtm/classes/Interventions/variables/--CLAS", "title": "Version-agnostic anchor resource for SDTM variable Interventions.--CLAS", "type": "Root Data Element"}, "self": {"href": "/mdr/sdtm/1-3/classes/Interventions/variables/--CLAS", "title": "Class", "type": "Class Variable"}}, "description": "Class for a medication or treatment, often obtained from a coding dictionary.", "label": "Class", "name": "--CLAS", "ordinal": "11", "role": "Variable Qualifier", "roleDescription": "Variable Qualifier of --TRT", "simpleDatatype": "Char"}, {"_links": {"parentClass": {"href": "/mdr/sdtm/1-3/classes/Interventions", "title": "Interventions Observation Class", "type": "Class"}, "parentProduct": {"href": "/mdr/sdtm/1-3", "title": "Study Data Tabulation Model Version 1.3", "type": "Foundational Model"}, "priorVersion": {"href": "/mdr/sdtm/1-2/classes/Interventions/variables/--CLASCD", "title": "Class Code", "type": "Class Variable"}, "qualifiesVariables": [{"href": "/mdr/sdtm/1-3/classes/Interventions/variables/--TRT", "title": "Name of Treatment", "type": "Class Variable"}], "rootItem": {"href": "/mdr/root/sdtm/classes/Interventions/variables/--CLASCD", "title": "Version-agnostic anchor resource for SDTM variable Interventions.--CLASCD", "type": "Root Data Element"}, "self": {"href": "/mdr/sdtm/1-3/classes/Interventions/variables/--CLASCD", "title": "Class Code", "type": "Class Variable"}}, "description": "Used to represent code for --CLAS.", "label": "Class Code", "name": "--CLASCD", "ordinal": "12", "role": "Variable Qualifier", "roleDescription": "Variable Qualifier of --TRT", "simpleDatatype": "Char"}, {"_links": {"parentClass": {"href": "/mdr/sdtm/1-3/classes/Interventions", "title": "Interventions Observation Class", "type": "Class"}, "parentProduct": {"href": "/mdr/sdtm/1-3", "title": "Study Data Tabulation Model Version 1.3", "type": "Foundational Model"}, "priorVersion": {"href": "/mdr/sdtm/1-2/classes/Interventions/variables/--DOSE", "title": "Dose", "type": "Class Variable"}, "rootItem": {"href": "/mdr/root/sdtm/classes/Interventions/variables/--DOSE", "title": "Version-agnostic anchor resource for SDTM variable Interventions.--DOSE", "type": "Root Data Element"}, "self": {"href": "/mdr/sdtm/1-3/classes/Interventions/variables/--DOSE", "title": "Dose", "type": "Class Variable"}}, "description": "Amount of --TRT given. Not populated when --DOSTXT is populated.", "label": "Dose", "name": "--DOSE", "ordinal": "13", "role": "Record Qualifier", "roleDescription": "Record Qualifier", "simpleDatatype": "Num"}, {"_links": {"parentClass": {"href": "/mdr/sdtm/1-3/classes/Interventions", "title": "Interventions Observation Class", "type": "Class"}, "parentProduct": {"href": "/mdr/sdtm/1-3", "title": "Study Data Tabulation Model Version 1.3", "type": "Foundational Model"}, "priorVersion": {"href": "/mdr/sdtm/1-2/classes/Interventions/variables/--DOSTXT", "title": "Dose Description", "type": "Class Variable"}, "rootItem": {"href": "/mdr/root/sdtm/classes/Interventions/variables/--DOSTXT", "title": "Version-agnostic anchor resource for SDTM variable Interventions.--DOSTXT", "type": "Root Data Element"}, "self": {"href": "/mdr/sdtm/1-3/classes/Interventions/variables/--DOSTXT", "title": "Dose Description", "type": "Class Variable"}}, "description": "Dosing information collected in text form. Examples: <1 per day, 200-400. Not populated when --DOSE is populated.", "label": "Dose Description", "name": "--DOSTXT", "ordinal": "14", "role": "Record Qualifier", "roleDescription": "Record Qualifier", "simpleDatatype": "Char"}, {"_links": {"parentClass": {"href": "/mdr/sdtm/1-3/classes/Interventions", "title": "Interventions Observation Class", "type": "Class"}, "parentProduct": {"href": "/mdr/sdtm/1-3", "title": "Study Data Tabulation Model Version 1.3", "type": "Foundational Model"}, "priorVersion": {"href": "/mdr/sdtm/1-2/classes/Interventions/variables/--DOSU", "title": "Dose Units", "type": "Class Variable"}, "qualifiesVariables": [{"href": "/mdr/sdtm/1-3/classes/Interventions/variables/--DOSTOT", "title": "Total Daily Dose", "type": "Class Variable"}, {"href": "/mdr/sdtm/1-3/classes/Interventions/variables/--DOSE", "title": "Dose", "type": "Class Variable"}, {"href": "/mdr/sdtm/1-3/classes/Interventions/variables/--DOSTXT", "title": "Dose Description", "type": "Class Variable"}], "rootItem": {"href": "/mdr/root/sdtm/classes/Interventions/variables/--DOSU", "title": "Version-agnostic anchor resource for SDTM variable Interventions.--DOSU", "type": "Root Data Element"}, "self": {"href": "/mdr/sdtm/1-3/classes/Interventions/variables/--DOSU", "title": "Dose Units", "type": "Class Variable"}}, "description": "Units for --DOSE, --DOSTOT, or --DOSTXT (Examples: ng, mg, mg/kg).", "label": "Dose Units", "name": "--DOSU", "ordinal": "15", "role": "Variable Qualifier", "roleDescription": "Variable Qualifier of --DOSE, --DOSTXT or --DOSTOT", "simpleDatatype": "Char"}, {"_links": {"parentClass": {"href": "/mdr/sdtm/1-3/classes/Interventions", "title": "Interventions Observation Class", "type": "Class"}, "parentProduct": {"href": "/mdr/sdtm/1-3", "title": "Study Data Tabulation Model Version 1.3", "type": "Foundational Model"}, "priorVersion": {"href": "/mdr/sdtm/1-2/classes/Interventions/variables/--DOSFRM", "title": "Dose Form", "type": "Class Variable"}, "qualifiesVariables": [{"href": "/mdr/sdtm/1-3/classes/Interventions/variables/--DOSTOT", "title": "Total Daily Dose", "type": "Class Variable"}, {"href": "/mdr/sdtm/1-3/classes/Interventions/variables/--DOSE", "title": "Dose", "type": "Class Variable"}, {"href": "/mdr/sdtm/1-3/classes/Interventions/variables/--DOSTXT", "title": "Dose Description", "type": "Class Variable"}], "rootItem": {"href": "/mdr/root/sdtm/classes/Interventions/variables/--DOSFRM", "title": "Version-agnostic anchor resource for SDTM variable Interventions.--DOSFRM", "type": "Root Data Element"}, "self": {"href": "/mdr/sdtm/1-3/classes/Interventions/variables/--DOSFRM", "title": "Dose Form", "type": "Class Variable"}}, "description": "Dose form for the treatment. Examples: TABLET, CAPSULE.", "label": "Dose Form", "name": "--DOSFRM", "ordinal": "16", "role": "Variable Qualifier", "roleDescription": "Variable Qualifier of --DOSE, --DOSTXT or --DOSTOT", "simpleDatatype": "Char"}, {"_links": {"parentClass": {"href": "/mdr/sdtm/1-3/classes/Interventions", "title": "Interventions Observation Class", "type": "Class"}, "parentProduct": {"href": "/mdr/sdtm/1-3", "title": "Study Data Tabulation Model Version 1.3", "type": "Foundational Model"}, "priorVersion": {"href": "/mdr/sdtm/1-2/classes/Interventions/variables/--DOSFRQ", "title": "Dosing Frequency per Interval", "type": "Class Variable"}, "qualifiesVariables": [{"href": "/mdr/sdtm/1-3/classes/Interventions/variables/--DOSTOT", "title": "Total Daily Dose", "type": "Class Variable"}, {"href": "/mdr/sdtm/1-3/classes/Interventions/variables/--DOSE", "title": "Dose", "type": "Class Variable"}, {"href": "/mdr/sdtm/1-3/classes/Interventions/variables/--DOSTXT", "title": "Dose Description", "type": "Class Variable"}], "rootItem": {"href": "/mdr/root/sdtm/classes/Interventions/variables/--DOSFRQ", "title": "Version-agnostic anchor resource for SDTM variable Interventions.--DOSFRQ", "type": "Root Data Element"}, "self": {"href": "/mdr/sdtm/1-3/classes/Interventions/variables/--DOSFRQ", "title": "Dosing Frequency per Interval", "type": "Class Variable"}}, "description": "Usually expressed as the number of doses given per a specific interval. Examples: QD, BID, TID, QID.", "label": "Dosing Frequency per Interval", "name": "--DOSFRQ", "ordinal": "17", "role": "Variable Qualifier", "roleDescription": "Variable Qualifier of --DOSE, --DOSTXT or --DOSTOT", "simpleDatatype": "Char"}, {"_links": {"parentClass": {"href": "/mdr/sdtm/1-3/classes/Interventions", "title": "Interventions Observation Class", "type": "Class"}, "parentProduct": {"href": "/mdr/sdtm/1-3", "title": "Study Data Tabulation Model Version 1.3", "type": "Foundational Model"}, "priorVersion": {"href": "/mdr/sdtm/1-2/classes/Interventions/variables/--DOSTOT", "title": "Total Daily Dose", "type": "Class Variable"}, "rootItem": {"href": "/mdr/root/sdtm/classes/Interventions/variables/--DOSTOT", "title": "Version-agnostic anchor resource for SDTM variable Interventions.--DOSTOT", "type": "Root Data Element"}, "self": {"href": "/mdr/sdtm/1-3/classes/Interventions/variables/--DOSTOT", "title": "Total Daily Dose", "type": "Class Variable"}}, "description": "Total daily dose of --TRT using the units in --DOSU. Used when dosing is collected as Total Daily Dose.", "label": "Total Daily Dose", "name": "--DOSTOT", "ordinal": "18", "role": "Record Qualifier", "roleDescription": "Record Qualifier", "simpleDatatype": "Num"}, {"_links": {"parentClass": {"href": "/mdr/sdtm/1-3/classes/Interventions", "title": "Interventions Observation Class", "type": "Class"}, "parentProduct": {"href": "/mdr/sdtm/1-3", "title": "Study Data Tabulation Model Version 1.3", "type": "Foundational Model"}, "priorVersion": {"href": "/mdr/sdtm/1-2/classes/Interventions/variables/--DOSRGM", "title": "Intended Dose Regimen", "type": "Class Variable"}, "qualifiesVariables": [{"href": "/mdr/sdtm/1-3/classes/Interventions/variables/--DOSTOT", "title": "Total Daily Dose", "type": "Class Variable"}, {"href": "/mdr/sdtm/1-3/classes/Interventions/variables/--DOSE", "title": "Dose", "type": "Class Variable"}, {"href": "/mdr/sdtm/1-3/classes/Interventions/variables/--DOSTXT", "title": "Dose Description", "type": "Class Variable"}], "rootItem": {"href": "/mdr/root/sdtm/classes/Interventions/variables/--DOSRGM", "title": "Version-agnostic anchor resource for SDTM variable Interventions.--DOSRGM", "type": "Root Data Element"}, "self": {"href": "/mdr/sdtm/1-3/classes/Interventions/variables/--DOSRGM", "title": "Intended Dose Regimen", "type": "Class Variable"}}, "description": "Text description of the (intended) schedule or regimen for the Intervention. Examples: TWO WEEKS ON, TWO WEEKS OFF.", "label": "Intended Dose Regimen", "name": "--DOSRGM", "ordinal": "19", "role": "Variable Qualifier", "roleDescription": "Variable Qualifier of --DOSE, --DOSTXT or --DOSTOT", "simpleDatatype": "Char"}, {"_links": {"parentClass": {"href": "/mdr/sdtm/1-3/classes/Interventions", "title": "Interventions Observation Class", "type": "Class"}, "parentProduct": {"href": "/mdr/sdtm/1-3", "title": "Study Data Tabulation Model Version 1.3", "type": "Foundational Model"}, "priorVersion": {"href": "/mdr/sdtm/1-2/classes/Interventions/variables/--ROUTE", "title": "Route of Administration", "type": "Class Variable"}, "qualifiesVariables": [{"href": "/mdr/sdtm/1-3/classes/Interventions/variables/--TRT", "title": "Name of Treatment", "type": "Class Variable"}], "rootItem": {"href": "/mdr/root/sdtm/classes/Interventions/variables/--ROUTE", "title": "Version-agnostic anchor resource for SDTM variable Interventions.--ROUTE", "type": "Root Data Element"}, "self": {"href": "/mdr/sdtm/1-3/classes/Interventions/variables/--ROUTE", "title": "Route of Administration", "type": "Class Variable"}}, "description": "Route of administration for the intervention. Examples: ORAL, INTRAVENOUS.", "label": "Route of Administration", "name": "--ROUTE", "ordinal": "20", "role": "Variable Qualifier", "roleDescription": "Variable Qualifier of --TRT", "simpleDatatype": "Char"}, {"_links": {"parentClass": {"href": "/mdr/sdtm/1-3/classes/Interventions", "title": "Interventions Observation Class", "type": "Class"}, "parentProduct": {"href": "/mdr/sdtm/1-3", "title": "Study Data Tabulation Model Version 1.3", "type": "Foundational Model"}, "priorVersion": {"href": "/mdr/sdtm/1-2/classes/Interventions/variables/--LOT", "title": "Lot Number", "type": "Class Variable"}, "rootItem": {"href": "/mdr/root/sdtm/classes/Interventions/variables/--LOT", "title": "Version-agnostic anchor resource for SDTM variable Interventions.--LOT", "type": "Root Data Element"}, "self": {"href": "/mdr/sdtm/1-3/classes/Interventions/variables/--LOT", "title": "Lot Number", "type": "Class Variable"}}, "description": "Lot number for the intervention described in --TRT.", "label": "Lot Number", "name": "--LOT", "ordinal": "21", "role": "Record Qualifier", "roleDescription": "Record Qualifier", "simpleDatatype": "Char"}, {"_links": {"parentClass": {"href": "/mdr/sdtm/1-3/classes/Interventions", "title": "Interventions Observation Class", "type": "Class"}, "parentProduct": {"href": "/mdr/sdtm/1-3", "title": "Study Data Tabulation Model Version 1.3", "type": "Foundational Model"}, "priorVersion": {"href": "/mdr/sdtm/1-2/classes/Interventions/variables/--LOC", "title": "Location of Dose Administration", "type": "Class Variable"}, "rootItem": {"href": "/mdr/root/sdtm/classes/Interventions/variables/--LOC", "title": "Version-agnostic anchor resource for SDTM variable Interventions.--LOC", "type": "Root Data Element"}, "self": {"href": "/mdr/sdtm/1-3/classes/Interventions/variables/--LOC", "title": "Location of Dose Administration", "type": "Class Variable"}}, "description": "Anatomical location of an intervention, such as an injection site. Example: ARM for an injection.", "label": "Location of Dose Administration", "name": "--LOC", "ordinal": "22", "role": "Record Qualifier", "roleDescription": "Record Qualifier", "simpleDatatype": "Char"}, {"_links": {"parentClass": {"href": "/mdr/sdtm/1-3/classes/Interventions", "title": "Interventions Observation Class", "type": "Class"}, "parentProduct": {"href": "/mdr/sdtm/1-3", "title": "Study Data Tabulation Model Version 1.3", "type": "Foundational Model"}, "priorVersion": {"href": "/mdr/sdtm/1-2/classes/Interventions/variables/--TRTV", "title": "Treatment Vehicle", "type": "Class Variable"}, "rootItem": {"href": "/mdr/root/sdtm/classes/Interventions/variables/--TRTV", "title": "Version-agnostic anchor resource for SDTM variable Interventions.--TRTV", "type": "Root Data Element"}, "self": {"href": "/mdr/sdtm/1-3/classes/Interventions/variables/--TRTV", "title": "Treatment Vehicle", "type": "Class Variable"}}, "description": "Vehicle for administration of treatment, such as a liquid in which the treatment drug is dissolved. Example: SALINE.", "label": "Treatment Vehicle", "name": "--TRTV", "ordinal": "23", "role": "Record Qualifier", "roleDescription": "Record Qualifier", "simpleDatatype": "Char"}, {"_links": {"parentClass": {"href": "/mdr/sdtm/1-3/classes/Interventions", "title": "Interventions Observation Class", "type": "Class"}, "parentProduct": {"href": "/mdr/sdtm/1-3", "title": "Study Data Tabulation Model Version 1.3", "type": "Foundational Model"}, "priorVersion": {"href": "/mdr/sdtm/1-2/classes/Interventions/variables/--VAMT", "title": "Treatment Vehicle Amount", "type": "Class Variable"}, "rootItem": {"href": "/mdr/root/sdtm/classes/Interventions/variables/--VAMT", "title": "Version-agnostic anchor resource for SDTM variable Interventions.--VAMT", "type": "Root Data Element"}, "self": {"href": "/mdr/sdtm/1-3/classes/Interventions/variables/--VAMT", "title": "Treatment Vehicle Amount", "type": "Class Variable"}}, "description": "Amount of the treatment vehicle administered or given.", "label": "Treatment Vehicle Amount", "name": "--VAMT", "ordinal": "24", "role": "Record Qualifier", "roleDescription": "Record Qualifier", "simpleDatatype": "Num"}, {"_links": {"parentClass": {"href": "/mdr/sdtm/1-3/classes/Interventions", "title": "Interventions Observation Class", "type": "Class"}, "parentProduct": {"href": "/mdr/sdtm/1-3", "title": "Study Data Tabulation Model Version 1.3", "type": "Foundational Model"}, "priorVersion": {"href": "/mdr/sdtm/1-2/classes/Interventions/variables/--VAMTU", "title": "Treatment Vehicle Amount Units", "type": "Class Variable"}, "qualifiesVariables": [{"href": "/mdr/sdtm/1-3/classes/Interventions/variables/--VAMT", "title": "Treatment Vehicle Amount", "type": "Class Variable"}], "rootItem": {"href": "/mdr/root/sdtm/classes/Interventions/variables/--VAMTU", "title": "Version-agnostic anchor resource for SDTM variable Interventions.--VAMTU", "type": "Root Data Element"}, "self": {"href": "/mdr/sdtm/1-3/classes/Interventions/variables/--VAMTU", "title": "Treatment Vehicle Amount Units", "type": "Class Variable"}}, "description": "Units for the treatment vehicle. Examples: mL, mg.", "label": "Treatment Vehicle Amount Units", "name": "--VAMTU", "ordinal": "25", "role": "Variable Qualifier", "roleDescription": "Variable Qualifier of --VAMT", "simpleDatatype": "Char"}, {"_links": {"parentClass": {"href": "/mdr/sdtm/1-3/classes/Interventions", "title": "Interventions Observation Class", "type": "Class"}, "parentProduct": {"href": "/mdr/sdtm/1-3", "title": "Study Data Tabulation Model Version 1.3", "type": "Foundational Model"}, "priorVersion": {"href": "/mdr/sdtm/1-2/classes/Interventions/variables/--ADJ", "title": "Reason for Dose Adjustment", "type": "Class Variable"}, "rootItem": {"href": "/mdr/root/sdtm/classes/Interventions/variables/--ADJ", "title": "Version-agnostic anchor resource for SDTM variable Interventions.--ADJ", "type": "Root Data Element"}, "self": {"href": "/mdr/sdtm/1-3/classes/Interventions/variables/--ADJ", "title": "Reason for Dose Adjustment", "type": "Class Variable"}}, "description": "Describes reason or explanation of why a dose is adjusted. Examples ADVERSE EVENT, INSUFFICIENT RESPONSE, NON-MEDICAL REASON.", "label": "Reason for Dose Adjustment", "name": "--ADJ", "ordinal": "26", "role": "Record Qualifier", "roleDescription": "Record Qualifier", "simpleDatatype": "Char"}], "description": "This SDTM class captures investigational, therapeutic and other treatments that are administered to the subject (with some actual or expected physiological effect) either as specified by the study protocol (e.g., exposure to study drug), coincident with the study assessment period (e.g., concomitant medications), or self-administered by the subject (such as use of alcohol, tobacco, or caffeine). (Source: CDISC Controlled Terminology, GNRLOBSC, C103374, 2018-06-29)", "label": "Interventions Observation Class", "name": "Interventions", "ordinal": "2"}, {"_links": {"parentClass": {"href": "/mdr/sdtm/1-3/classes/GeneralObservations", "title": "General Observation Class", "type": "Class"}, "parentProduct": {"href": "/mdr/sdtm/1-3", "title": "Study Data Tabulation Model Version 1.3", "type": "Foundational Model"}, "priorVersion": {"href": "/mdr/sdtm/1-2/classes/Events", "title": "Events Observation Class", "type": "Class"}, "self": {"href": "/mdr/sdtm/1-3/classes/Events", "title": "Events Observation Class", "type": "Class"}}, "classVariables": [{"_links": {"parentClass": {"href": "/mdr/sdtm/1-3/classes/Events", "title": "Events Observation Class", "type": "Class"}, "parentProduct": {"href": "/mdr/sdtm/1-3", "title": "Study Data Tabulation Model Version 1.3", "type": "Foundational Model"}, "priorVersion": {"href": "/mdr/sdtm/1-2/classes/Events/variables/--TERM", "title": "Reported Term", "type": "Class Variable"}, "rootItem": {"href": "/mdr/root/sdtm/classes/Events/variables/--TERM", "title": "Version-agnostic anchor resource for SDTM variable Events.--TERM", "type": "Root Data Element"}, "self": {"href": "/mdr/sdtm/1-3/classes/Events/variables/--TERM", "title": "Reported Term", "type": "Class Variable"}}, "description": "Topic variable for an event observation, which is the verbatim or pre-specified name of the event.", "label": "Reported Term", "name": "--TERM", "ordinal": "1", "role": "Topic", "roleDescription": "Topic", "simpleDatatype": "Char"}, {"_links": {"parentClass": {"href": "/mdr/sdtm/1-3/classes/Events", "title": "Events Observation Class", "type": "Class"}, "parentProduct": {"href": "/mdr/sdtm/1-3", "title": "Study Data Tabulation Model Version 1.3", "type": "Foundational Model"}, "priorVersion": {"href": "/mdr/sdtm/1-2/classes/Events/variables/--MODIFY", "title": "Modified Reported Term", "type": "Class Variable"}, "qualifiesVariables": [{"href": "/mdr/sdtm/1-3/classes/Events/variables/--TERM", "title": "Reported Term", "type": "Class Variable"}], "rootItem": {"href": "/mdr/root/sdtm/classes/Events/variables/--MODIFY", "title": "Version-agnostic anchor resource for SDTM variable Events.--MODIFY", "type": "Root Data Element"}, "self": {"href": "/mdr/sdtm/1-3/classes/Events/variables/--MODIFY", "title": "Modified Reported Term", "type": "Class Variable"}}, "description": "If the value for --TERM is modified for coding purposes, then the modified text is placed here.", "label": "Modified Reported Term", "name": "--MODIFY", "ordinal": "2", "role": "Synonym Qualifier", "roleDescription": "Synonym Qualifier of --TERM", "simpleDatatype": "Char"}, {"_links": {"parentClass": {"href": "/mdr/sdtm/1-3/classes/Events", "title": "Events Observation Class", "type": "Class"}, "parentProduct": {"href": "/mdr/sdtm/1-3", "title": "Study Data Tabulation Model Version 1.3", "type": "Foundational Model"}, "qualifiesVariables": [{"href": "/mdr/sdtm/1-3/classes/Events/variables/--TERM", "title": "Reported Term", "type": "Class Variable"}], "rootItem": {"href": "/mdr/root/sdtm/classes/Events/variables/--LLT", "title": "Version-agnostic anchor resource for SDTM variable Events.--LLT", "type": "Root Data Element"}, "self": {"href": "/mdr/sdtm/1-3/classes/Events/variables/--LLT", "title": "Lowest Level Term", "type": "Class Variable"}}, "description": "MedDRA Lowest Level Term.", "label": "Lowest Level Term", "name": "--LLT", "ordinal": "3", "role": "Variable Qualifier", "roleDescription": "Variable Qualifier of --TERM", "simpleDatatype": "Char"}, {"_links": {"parentClass": {"href": "/mdr/sdtm/1-3/classes/Events", "title": "Events Observation Class", "type": "Class"}, "parentProduct": {"href": "/mdr/sdtm/1-3", "title": "Study Data Tabulation Model Version 1.3", "type": "Foundational Model"}, "qualifiesVariables": [{"href": "/mdr/sdtm/1-3/classes/Events/variables/--LLT", "title": "Lowest Level Term", "type": "Class Variable"}], "rootItem": {"href": "/mdr/root/sdtm/classes/Events/variables/--LLTCD", "title": "Version-agnostic anchor resource for SDTM variable Events.--LLTCD", "type": "Root Data Element"}, "self": {"href": "/mdr/sdtm/1-3/classes/Events/variables/--LLTCD", "title": "Lowest Level Term Code", "type": "Class Variable"}}, "description": "MedDRA Lowest Level Term code.", "label": "Lowest Level Term Code", "name": "--LLTCD", "ordinal": "4", "role": "Variable Qualifier", "roleDescription": "Variable Qualifier of --LLT", "simpleDatatype": "Num"}, {"_links": {"parentClass": {"href": "/mdr/sdtm/1-3/classes/Events", "title": "Events Observation Class", "type": "Class"}, "parentProduct": {"href": "/mdr/sdtm/1-3", "title": "Study Data Tabulation Model Version 1.3", "type": "Foundational Model"}, "priorVersion": {"href": "/mdr/sdtm/1-2/classes/Events/variables/--DECOD", "title": "Dictionary-Derived Term", "type": "Class Variable"}, "qualifiesVariables": [{"href": "/mdr/sdtm/1-3/classes/Events/variables/--TERM", "title": "Reported Term", "type": "Class Variable"}], "rootItem": {"href": "/mdr/root/sdtm/classes/Events/variables/--DECOD", "title": "Version-agnostic anchor resource for SDTM variable Events.--DECOD", "type": "Root Data Element"}, "self": {"href": "/mdr/sdtm/1-3/classes/Events/variables/--DECOD", "title": "Dictionary-Derived Term", "type": "Class Variable"}}, "description": "Dictionary or sponsor-defined derived text description of the topic variable, --TERM, or the modified topic variable (--MODIFY), if applicable. Equivalent to the Preferred Term (PT in MedDRA).", "label": "Dictionary-Derived Term", "name": "--DECOD", "ordinal": "5", "role": "Synonym Qualifier", "roleDescription": "Synonym Qualifier of --TERM", "simpleDatatype": "Char"}, {"_links": {"parentClass": {"href": "/mdr/sdtm/1-3/classes/Events", "title": "Events Observation Class", "type": "Class"}, "parentProduct": {"href": "/mdr/sdtm/1-3", "title": "Study Data Tabulation Model Version 1.3", "type": "Foundational Model"}, "qualifiesVariables": [{"href": "/mdr/sdtm/1-3/classes/Events/variables/--DECOD", "title": "Dictionary-Derived Term", "type": "Class Variable"}], "rootItem": {"href": "/mdr/root/sdtm/classes/Events/variables/--PTCD", "title": "Version-agnostic anchor resource for SDTM variable Events.--PTCD", "type": "Root Data Element"}, "self": {"href": "/mdr/sdtm/1-3/classes/Events/variables/--PTCD", "title": "Preferred Term Code", "type": "Class Variable"}}, "description": "MedDRA Preferred Term code.", "label": "Preferred Term Code", "name": "--PTCD", "ordinal": "6", "role": "Variable Qualifier", "roleDescription": "Variable Qualifier of --DECOD", "simpleDatatype": "Num"}, {"_links": {"parentClass": {"href": "/mdr/sdtm/1-3/classes/Events", "title": "Events Observation Class", "type": "Class"}, "parentProduct": {"href": "/mdr/sdtm/1-3", "title": "Study Data Tabulation Model Version 1.3", "type": "Foundational Model"}, "qualifiesVariables": [{"href": "/mdr/sdtm/1-3/classes/Events/variables/--TERM", "title": "Reported Term", "type": "Class Variable"}], "rootItem": {"href": "/mdr/root/sdtm/classes/Events/variables/--HLT", "title": "Version-agnostic anchor resource for SDTM variable Events.--HLT", "type": "Root Data Element"}, "self": {"href": "/mdr/sdtm/1-3/classes/Events/variables/--HLT", "title": "High Level Term", "type": "Class Variable"}}, "description": "MedDRA High Level Term from the primary path.", "label": "High Level Term", "name": "--HLT", "ordinal": "7", "role": "Variable Qualifier", "roleDescription": "Variable Qualifier of --TERM", "simpleDatatype": "Char"}, {"_links": {"parentClass": {"href": "/mdr/sdtm/1-3/classes/Events", "title": "Events Observation Class", "type": "Class"}, "parentProduct": {"href": "/mdr/sdtm/1-3", "title": "Study Data Tabulation Model Version 1.3", "type": "Foundational Model"}, "qualifiesVariables": [{"href": "/mdr/sdtm/1-3/classes/Events/variables/--HLT", "title": "High Level Term", "type": "Class Variable"}], "rootItem": {"href": "/mdr/root/sdtm/classes/Events/variables/--HLTCD", "title": "Version-agnostic anchor resource for SDTM variable Events.--HLTCD", "type": "Root Data Element"}, "self": {"href": "/mdr/sdtm/1-3/classes/Events/variables/--HLTCD", "title": "High Level Term Code", "type": "Class Variable"}}, "description": "MedDRA High Level Term code from the primary path.", "label": "High Level Term Code", "name": "--HLTCD", "ordinal": "8", "role": "Variable Qualifier", "roleDescription": "Variable Qualifier of --HLT", "simpleDatatype": "Num"}, {"_links": {"parentClass": {"href": "/mdr/sdtm/1-3/classes/Events", "title": "Events Observation Class", "type": "Class"}, "parentProduct": {"href": "/mdr/sdtm/1-3", "title": "Study Data Tabulation Model Version 1.3", "type": "Foundational Model"}, "qualifiesVariables": [{"href": "/mdr/sdtm/1-3/classes/Events/variables/--TERM", "title": "Reported Term", "type": "Class Variable"}], "rootItem": {"href": "/mdr/root/sdtm/classes/Events/variables/--HLGT", "title": "Version-agnostic anchor resource for SDTM variable Events.--HLGT", "type": "Root Data Element"}, "self": {"href": "/mdr/sdtm/1-3/classes/Events/variables/--HLGT", "title": "High Level Group Term", "type": "Class Variable"}}, "description": "MedDRA High Level Group Term from the primary path.", "label": "High Level Group Term", "name": "--HLGT", "ordinal": "9", "role": "Variable Qualifier", "roleDescription": "Variable Qualifier of --TERM", "simpleDatatype": "Char"}, {"_links": {"parentClass": {"href": "/mdr/sdtm/1-3/classes/Events", "title": "Events Observation Class", "type": "Class"}, "parentProduct": {"href": "/mdr/sdtm/1-3", "title": "Study Data Tabulation Model Version 1.3", "type": "Foundational Model"}, "qualifiesVariables": [{"href": "/mdr/sdtm/1-3/classes/Events/variables/--HLGT", "title": "High Level Group Term", "type": "Class Variable"}], "rootItem": {"href": "/mdr/root/sdtm/classes/Events/variables/--HLGTCD", "title": "Version-agnostic anchor resource for SDTM variable Events.--HLGTCD", "type": "Root Data Element"}, "self": {"href": "/mdr/sdtm/1-3/classes/Events/variables/--HLGTCD", "title": "High Level Group Term Code", "type": "Class Variable"}}, "description": "MedDRA High Level Group Term code from the primary path.", "label": "High Level Group Term Code", "name": "--HLGTCD", "ordinal": "10", "role": "Variable Qualifier", "roleDescription": "Variable Qualifier of --HLGT", "simpleDatatype": "Num"}, {"_links": {"parentClass": {"href": "/mdr/sdtm/1-3/classes/Events", "title": "Events Observation Class", "type": "Class"}, "parentProduct": {"href": "/mdr/sdtm/1-3", "title": "Study Data Tabulation Model Version 1.3", "type": "Foundational Model"}, "priorVersion": {"href": "/mdr/sdtm/1-2/classes/Events/variables/--CAT", "title": "Category", "type": "Class Variable"}, "rootItem": {"href": "/mdr/root/sdtm/classes/Events/variables/--CAT", "title": "Version-agnostic anchor resource for SDTM variable Events.--CAT", "type": "Root Data Element"}, "self": {"href": "/mdr/sdtm/1-3/classes/Events/variables/--CAT", "title": "Category", "type": "Class Variable"}}, "description": "Used to define a category of topic-variable values.", "label": "Category", "name": "--CAT", "ordinal": "11", "role": "Grouping Qualifier", "roleDescription": "Grouping Qualifier", "simpleDatatype": "Char"}, {"_links": {"parentClass": {"href": "/mdr/sdtm/1-3/classes/Events", "title": "Events Observation Class", "type": "Class"}, "parentProduct": {"href": "/mdr/sdtm/1-3", "title": "Study Data Tabulation Model Version 1.3", "type": "Foundational Model"}, "priorVersion": {"href": "/mdr/sdtm/1-2/classes/Events/variables/--SCAT", "title": "Subcategory", "type": "Class Variable"}, "rootItem": {"href": "/mdr/root/sdtm/classes/Events/variables/--SCAT", "title": "Version-agnostic anchor resource for SDTM variable Events.--SCAT", "type": "Root Data Element"}, "self": {"href": "/mdr/sdtm/1-3/classes/Events/variables/--SCAT", "title": "Subcategory", "type": "Class Variable"}}, "description": "Used to define a further categorization of --CAT values.", "label": "Subcategory", "name": "--SCAT", "ordinal": "12", "role": "Grouping Qualifier", "roleDescription": "Grouping Qualifier", "simpleDatatype": "Char"}, {"_links": {"parentClass": {"href": "/mdr/sdtm/1-3/classes/Events", "title": "Events Observation Class", "type": "Class"}, "parentProduct": {"href": "/mdr/sdtm/1-3", "title": "Study Data Tabulation Model Version 1.3", "type": "Foundational Model"}, "priorVersion": {"href": "/mdr/sdtm/1-2/classes/Events/variables/--PRESP", "title": "Pre-specified", "type": "Class Variable"}, "rootItem": {"href": "/mdr/root/sdtm/classes/Events/variables/--PRESP", "title": "Version-agnostic anchor resource for SDTM variable Events.--PRESP", "type": "Root Data Element"}, "self": {"href": "/mdr/sdtm/1-3/classes/Events/variables/--PRESP", "title": "Pre-specified", "type": "Class Variable"}}, "description": "Used to indicate whether the event described by --TERM was pre-specified on a CRF. Value is Y for pre-specified events, null for spontaneously reported events.", "label": "Pre-specified", "name": "--PRESP", "ordinal": "13", "role": "Variable Qualifier", "roleDescription": "Variable Qualifier of --TRT", "simpleDatatype": "Char"}, {"_links": {"parentClass": {"href": "/mdr/sdtm/1-3/classes/Events", "title": "Events Observation Class", "type": "Class"}, "parentProduct": {"href": "/mdr/sdtm/1-3", "title": "Study Data Tabulation Model Version 1.3", "type": "Foundational Model"}, "priorVersion": {"href": "/mdr/sdtm/1-2/classes/Events/variables/--OCCUR", "title": "Occurrence", "type": "Class Variable"}, "rootItem": {"href": "/mdr/root/sdtm/classes/Events/variables/--OCCUR", "title": "Version-agnostic anchor resource for SDTM variable Events.--OCCUR", "type": "Root Data Element"}, "self": {"href": "/mdr/sdtm/1-3/classes/Events/variables/--OCCUR", "title": "Occurrence", "type": "Class Variable"}}, "description": "Used to record whether a pre-specified event occurred when information about the occurrence of a specific event is solicited.", "label": "Occurrence", "name": "--OCCUR", "ordinal": "14", "role": "Record Qualifier", "roleDescription": "Record Qualifier", "simpleDatatype": "Char"}, {"_links": {"parentClass": {"href": "/mdr/sdtm/1-3/classes/Events", "title": "Events Observation Class", "type": "Class"}, "parentProduct": {"href": "/mdr/sdtm/1-3", "title": "Study Data Tabulation Model Version 1.3", "type": "Foundational Model"}, "priorVersion": {"href": "/mdr/sdtm/1-2/classes/Events/variables/--STAT", "title": "Completion Status", "type": "Class Variable"}, "rootItem": {"href": "/mdr/root/sdtm/classes/Events/variables/--STAT", "title": "Version-agnostic anchor resource for SDTM variable Events.--STAT", "type": "Root Data Element"}, "self": {"href": "/mdr/sdtm/1-3/classes/Events/variables/--STAT", "title": "Completion Status", "type": "Class Variable"}}, "description": "Used to indicate when a question about the occurrence of a pre-specified event was not answered. Should be null or have a value of NOT DONE.", "label": "Completion Status", "name": "--STAT", "ordinal": "15", "role": "Record Qualifier", "roleDescription": "Record Qualifier", "simpleDatatype": "Char"}, {"_links": {"parentClass": {"href": "/mdr/sdtm/1-3/classes/Events", "title": "Events Observation Class", "type": "Class"}, "parentProduct": {"href": "/mdr/sdtm/1-3", "title": "Study Data Tabulation Model Version 1.3", "type": "Foundational Model"}, "priorVersion": {"href": "/mdr/sdtm/1-2/classes/Events/variables/--REASND", "title": "Reason Not Done", "type": "Class Variable"}, "rootItem": {"href": "/mdr/root/sdtm/classes/Events/variables/--REASND", "title": "Version-agnostic anchor resource for SDTM variable Events.--REASND", "type": "Root Data Element"}, "self": {"href": "/mdr/sdtm/1-3/classes/Events/variables/--REASND", "title": "Reason Not Done", "type": "Class Variable"}}, "description": "Reason not done. Used in conjunction with --STAT when its value is NOT DONE.", "label": "Reason Not Done", "name": "--REASND", "ordinal": "16", "role": "Record Qualifier", "roleDescription": "Record Qualifier", "simpleDatatype": "Char"}, {"_links": {"parentClass": {"href": "/mdr/sdtm/1-3/classes/Events", "title": "Events Observation Class", "type": "Class"}, "parentProduct": {"href": "/mdr/sdtm/1-3", "title": "Study Data Tabulation Model Version 1.3", "type": "Foundational Model"}, "priorVersion": {"href": "/mdr/sdtm/1-2/classes/Events/variables/--BODSYS", "title": "Body System or Organ Class", "type": "Class Variable"}, "rootItem": {"href": "/mdr/root/sdtm/classes/Events/variables/--BODSYS", "title": "Version-agnostic anchor resource for SDTM variable Events.--BODSYS", "type": "Root Data Element"}, "self": {"href": "/mdr/sdtm/1-3/classes/Events/variables/--BODSYS", "title": "Body System or Organ Class", "type": "Class Variable"}}, "description": "Body system or system organ class assigned for analysis from a standard hierarchy (e.g. MedDRA) associated with an event. Example: GASTROINTESTINAL DISORDERS.", "label": "Body System or Organ Class", "name": "--BODSYS", "ordinal": "17", "role": "Record Qualifier", "roleDescription": "Record Qualifier", "simpleDatatype": "Char"}, {"_links": {"parentClass": {"href": "/mdr/sdtm/1-3/classes/Events", "title": "Events Observation Class", "type": "Class"}, "parentProduct": {"href": "/mdr/sdtm/1-3", "title": "Study Data Tabulation Model Version 1.3", "type": "Foundational Model"}, "qualifiesVariables": [{"href": "/mdr/sdtm/1-3/classes/Events/variables/--BODSYS", "title": "Body System or Organ Class", "type": "Class Variable"}], "rootItem": {"href": "/mdr/root/sdtm/classes/Events/variables/--BDSYCD", "title": "Version-agnostic anchor resource for SDTM variable Events.--BDSYCD", "type": "Root Data Element"}, "self": {"href": "/mdr/sdtm/1-3/classes/Events/variables/--BDSYCD", "title": "Body System or Organ Class Code", "type": "Class Variable"}}, "description": "MedDRA System Organ Class code corresponding to --BODSYS assigned for analysis.", "label": "Body System or Organ Class Code", "name": "--BDSYCD", "ordinal": "18", "role": "Variable Qualifier", "roleDescription": "Variable Qualifier of --BODSYS", "simpleDatatype": "Num"}, {"_links": {"parentClass": {"href": "/mdr/sdtm/1-3/classes/Events", "title": "Events Observation Class", "type": "Class"}, "parentProduct": {"href": "/mdr/sdtm/1-3", "title": "Study Data Tabulation Model Version 1.3", "type": "Foundational Model"}, "qualifiesVariables": [{"href": "/mdr/sdtm/1-3/classes/Events/variables/--TERM", "title": "Reported Term", "type": "Class Variable"}], "rootItem": {"href": "/mdr/root/sdtm/classes/Events/variables/--SOC", "title": "Version-agnostic anchor resource for SDTM variable Events.--SOC", "type": "Root Data Element"}, "self": {"href": "/mdr/sdtm/1-3/classes/Events/variables/--SOC", "title": "Primary System Organ Class", "type": "Class Variable"}}, "description": "MedDRA primary System Organ Class associated with the event.", "label": "Primary System Organ Class", "name": "--SOC", "ordinal": "19", "role": "Variable Qualifier", "roleDescription": "Variable Qualifier of --TERM", "simpleDatatype": "Char"}, {"_links": {"parentClass": {"href": "/mdr/sdtm/1-3/classes/Events", "title": "Events Observation Class", "type": "Class"}, "parentProduct": {"href": "/mdr/sdtm/1-3", "title": "Study Data Tabulation Model Version 1.3", "type": "Foundational Model"}, "qualifiesVariables": [{"href": "/mdr/sdtm/1-3/classes/Events/variables/--SOC", "title": "Primary System Organ Class", "type": "Class Variable"}], "rootItem": {"href": "/mdr/root/sdtm/classes/Events/variables/--SOCCD", "title": "Version-agnostic anchor resource for SDTM variable Events.--SOCCD", "type": "Root Data Element"}, "self": {"href": "/mdr/sdtm/1-3/classes/Events/variables/--SOCCD", "title": "Primary System Organ Class Code", "type": "Class Variable"}}, "description": "MedDRA primary System Organ Class code.", "label": "Primary System Organ Class Code", "name": "--SOCCD", "ordinal": "20", "role": "Variable Qualifier", "roleDescription": "Variable Qualifier of --SOC", "simpleDatatype": "Num"}, {"_links": {"parentClass": {"href": "/mdr/sdtm/1-3/classes/Events", "title": "Events Observation Class", "type": "Class"}, "parentProduct": {"href": "/mdr/sdtm/1-3", "title": "Study Data Tabulation Model Version 1.3", "type": "Foundational Model"}, "priorVersion": {"href": "/mdr/sdtm/1-2/classes/Events/variables/--LOC", "title": "Location of Event", "type": "Class Variable"}, "rootItem": {"href": "/mdr/root/sdtm/classes/Events/variables/--LOC", "title": "Version-agnostic anchor resource for SDTM variable Events.--LOC", "type": "Root Data Element"}, "self": {"href": "/mdr/sdtm/1-3/classes/Events/variables/--LOC", "title": "Location of Event", "type": "Class Variable"}}, "description": "Describes anatomical location relevant for the event. Example: ARM for skin rash.", "label": "Location of Event", "name": "--LOC", "ordinal": "21", "role": "Record Qualifier", "roleDescription": "Record Qualifier", "simpleDatatype": "Char"}, {"_links": {"parentClass": {"href": "/mdr/sdtm/1-3/classes/Events", "title": "Events Observation Class", "type": "Class"}, "parentProduct": {"href": "/mdr/sdtm/1-3", "title": "Study Data Tabulation Model Version 1.3", "type": "Foundational Model"}, "priorVersion": {"href": "/mdr/sdtm/1-2/classes/Events/variables/--SEV", "title": "Severity/Intensity", "type": "Class Variable"}, "rootItem": {"href": "/mdr/root/sdtm/classes/Events/variables/--SEV", "title": "Version-agnostic anchor resource for SDTM variable Events.--SEV", "type": "Root Data Element"}, "self": {"href": "/mdr/sdtm/1-3/classes/Events/variables/--SEV", "title": "Severity/Intensity", "type": "Class Variable"}}, "description": "The severity or intensity of the event. Examples: MILD, MODERATE, SEVERE.", "label": "Severity/Intensity", "name": "--SEV", "ordinal": "22", "role": "Record Qualifier", "roleDescription": "Record Qualifier", "simpleDatatype": "Char"}, {"_links": {"parentClass": {"href": "/mdr/sdtm/1-3/classes/Events", "title": "Events Observation Class", "type": "Class"}, "parentProduct": {"href": "/mdr/sdtm/1-3", "title": "Study Data Tabulation Model Version 1.3", "type": "Foundational Model"}, "priorVersion": {"href": "/mdr/sdtm/1-2/classes/Events/variables/--SER", "title": "Serious Event", "type": "Class Variable"}, "rootItem": {"href": "/mdr/root/sdtm/classes/Events/variables/--SER", "title": "Version-agnostic anchor resource for SDTM variable Events.--SER", "type": "Root Data Element"}, "self": {"href": "/mdr/sdtm/1-3/classes/Events/variables/--SER", "title": "Serious Event", "type": "Class Variable"}}, "description": "Is this is a serious event? Valid values are \"Y\" and \"N\".", "label": "Serious Event", "name": "--SER", "ordinal": "23", "role": "Record Qualifier", "roleDescription": "Record Qualifier", "simpleDatatype": "Char"}, {"_links": {"parentClass": {"href": "/mdr/sdtm/1-3/classes/Events", "title": "Events Observation Class", "type": "Class"}, "parentProduct": {"href": "/mdr/sdtm/1-3", "title": "Study Data Tabulation Model Version 1.3", "type": "Foundational Model"}, "priorVersion": {"href": "/mdr/sdtm/1-2/classes/Events/variables/--ACN", "title": "Action Taken with Study Treatment", "type": "Class Variable"}, "rootItem": {"href": "/mdr/root/sdtm/classes/Events/variables/--ACN", "title": "Version-agnostic anchor resource for SDTM variable Events.--ACN", "type": "Root Data Element"}, "self": {"href": "/mdr/sdtm/1-3/classes/Events/variables/--ACN", "title": "Action Taken with Study Treatment", "type": "Class Variable"}}, "description": "Describes changes made to the study treatment as a result of the event. Examples: DOSE INCREASED, DOSE NOT CHANGED.", "label": "Action Taken with Study Treatment", "name": "--ACN", "ordinal": "24", "role": "Record Qualifier", "roleDescription": "Record Qualifier", "simpleDatatype": "Char"}, {"_links": {"parentClass": {"href": "/mdr/sdtm/1-3/classes/Events", "title": "Events Observation Class", "type": "Class"}, "parentProduct": {"href": "/mdr/sdtm/1-3", "title": "Study Data Tabulation Model Version 1.3", "type": "Foundational Model"}, "priorVersion": {"href": "/mdr/sdtm/1-2/classes/Events/variables/--ACNOTH", "title": "Other Action Taken", "type": "Class Variable"}, "rootItem": {"href": "/mdr/root/sdtm/classes/Events/variables/--ACNOTH", "title": "Version-agnostic anchor resource for SDTM variable Events.--ACNOTH", "type": "Root Data Element"}, "self": {"href": "/mdr/sdtm/1-3/classes/Events/variables/--ACNOTH", "title": "Other Action Taken", "type": "Class Variable"}}, "description": "Describes other actions taken as a result of the event that are unrelated to dose adjustments of study treatment.", "label": "Other Action Taken", "name": "--ACNOTH", "ordinal": "25", "role": "Record Qualifier", "roleDescription": "Record Qualifier", "simpleDatatype": "Char"}, {"_links": {"parentClass": {"href": "/mdr/sdtm/1-3/classes/Events", "title": "Events Observation Class", "type": "Class"}, "parentProduct": {"href": "/mdr/sdtm/1-3", "title": "Study Data Tabulation Model Version 1.3", "type": "Foundational Model"}, "priorVersion": {"href": "/mdr/sdtm/1-2/classes/Events/variables/--REL", "title": "Causality", "type": "Class Variable"}, "rootItem": {"href": "/mdr/root/sdtm/classes/Events/variables/--REL", "title": "Version-agnostic anchor resource for SDTM variable Events.--REL", "type": "Root Data Element"}, "self": {"href": "/mdr/sdtm/1-3/classes/Events/variables/--REL", "title": "Causality", "type": "Class Variable"}}, "description": "Records the investigator's opinion as to the causality of the event to the treatment. ICH E2A and E2B examples include NOT RELATED, UNLIKELY RELATED, POSSIBLY RELATED, RELATED.", "label": "Causality", "name": "--REL", "ordinal": "26", "role": "Record Qualifier", "roleDescription": "Record Qualifier", "simpleDatatype": "Char"}, {"_links": {"parentClass": {"href": "/mdr/sdtm/1-3/classes/Events", "title": "Events Observation Class", "type": "Class"}, "parentProduct": {"href": "/mdr/sdtm/1-3", "title": "Study Data Tabulation Model Version 1.3", "type": "Foundational Model"}, "priorVersion": {"href": "/mdr/sdtm/1-2/classes/Events/variables/--RELNST", "title": "Relationship to Non-Study Treatment", "type": "Class Variable"}, "rootItem": {"href": "/mdr/root/sdtm/classes/Events/variables/--RELNST", "title": "Version-agnostic anchor resource for SDTM variable Events.--RELNST", "type": "Root Data Element"}, "self": {"href": "/mdr/sdtm/1-3/classes/Events/variables/--RELNST", "title": "Relationship to Non-Study Treatment", "type": "Class Variable"}}, "description": "An opinion as to whether the event may have been due to a treatment other than study drug. Example: \"MORE LIKELY RELATED TO ASPIRIN USE.\"", "label": "Relationship to Non-Study Treatment", "name": "--RELNST", "ordinal": "27", "role": "Record Qualifier", "roleDescription": "Record Qualifier", "simpleDatatype": "Char"}, {"_links": {"parentClass": {"href": "/mdr/sdtm/1-3/classes/Events", "title": "Events Observation Class", "type": "Class"}, "parentProduct": {"href": "/mdr/sdtm/1-3", "title": "Study Data Tabulation Model Version 1.3", "type": "Foundational Model"}, "priorVersion": {"href": "/mdr/sdtm/1-2/classes/Events/variables/--PATT", "title": "Pattern of Event", "type": "Class Variable"}, "rootItem": {"href": "/mdr/root/sdtm/classes/Events/variables/--PATT", "title": "Version-agnostic anchor resource for SDTM variable Events.--PATT", "type": "Root Data Element"}, "self": {"href": "/mdr/sdtm/1-3/classes/Events/variables/--PATT", "title": "Pattern of Event", "type": "Class Variable"}}, "description": "Used to indicate the pattern of the event over time. Examples: INTERMITTENT, CONTINUOUS, SINGLE EVENT.", "label": "Pattern of Event", "name": "--PATT", "ordinal": "28", "role": "Record Qualifier", "roleDescription": "Record Qualifier", "simpleDatatype": "Char"}, {"_links": {"parentClass": {"href": "/mdr/sdtm/1-3/classes/Events", "title": "Events Observation Class", "type": "Class"}, "parentProduct": {"href": "/mdr/sdtm/1-3", "title": "Study Data Tabulation Model Version 1.3", "type": "Foundational Model"}, "priorVersion": {"href": "/mdr/sdtm/1-2/classes/Events/variables/--OUT", "title": "Outcome of Event", "type": "Class Variable"}, "rootItem": {"href": "/mdr/root/sdtm/classes/Events/variables/--OUT", "title": "Version-agnostic anchor resource for SDTM variable Events.--OUT", "type": "Root Data Element"}, "self": {"href": "/mdr/sdtm/1-3/classes/Events/variables/--OUT", "title": "Outcome of Event", "type": "Class Variable"}}, "description": "Description of the outcome of an event. Examples: RECOVERED/RESOLVED, FATAL.", "label": "Outcome of Event", "name": "--OUT", "ordinal": "29", "role": "Record Qualifier", "roleDescription": "Record Qualifier", "simpleDatatype": "Char"}, {"_links": {"parentClass": {"href": "/mdr/sdtm/1-3/classes/Events", "title": "Events Observation Class", "type": "Class"}, "parentProduct": {"href": "/mdr/sdtm/1-3", "title": "Study Data Tabulation Model Version 1.3", "type": "Foundational Model"}, "priorVersion": {"href": "/mdr/sdtm/1-2/classes/Events/variables/--SCAN", "title": "Involves Cancer", "type": "Class Variable"}, "rootItem": {"href": "/mdr/root/sdtm/classes/Events/variables/--SCAN", "title": "Version-agnostic anchor resource for SDTM variable Events.--SCAN", "type": "Root Data Element"}, "self": {"href": "/mdr/sdtm/1-3/classes/Events/variables/--SCAN", "title": "Involves Cancer", "type": "Class Variable"}}, "description": "Was the event associated with the development of cancer? Valid values are \"Y\" and \"N\".", "label": "Involves Cancer", "name": "--SCAN", "ordinal": "30", "role": "Record Qualifier", "roleDescription": "Record Qualifier", "simpleDatatype": "Char"}, {"_links": {"parentClass": {"href": "/mdr/sdtm/1-3/classes/Events", "title": "Events Observation Class", "type": "Class"}, "parentProduct": {"href": "/mdr/sdtm/1-3", "title": "Study Data Tabulation Model Version 1.3", "type": "Foundational Model"}, "priorVersion": {"href": "/mdr/sdtm/1-2/classes/Events/variables/--SCONG", "title": "Congenital Anomaly or Birth Defect", "type": "Class Variable"}, "rootItem": {"href": "/mdr/root/sdtm/classes/Events/variables/--SCONG", "title": "Version-agnostic anchor resource for SDTM variable Events.--SCONG", "type": "Root Data Element"}, "self": {"href": "/mdr/sdtm/1-3/classes/Events/variables/--SCONG", "title": "Congenital Anomaly or Birth Defect", "type": "Class Variable"}}, "description": "Was the event associated with congenital anomaly or birth defect? Valid values are \"Y\" and \"N\".", "label": "Congenital Anomaly or Birth Defect", "name": "--SCONG", "ordinal": "31", "role": "Record Qualifier", "roleDescription": "Record Qualifier", "simpleDatatype": "Char"}, {"_links": {"parentClass": {"href": "/mdr/sdtm/1-3/classes/Events", "title": "Events Observation Class", "type": "Class"}, "parentProduct": {"href": "/mdr/sdtm/1-3", "title": "Study Data Tabulation Model Version 1.3", "type": "Foundational Model"}, "priorVersion": {"href": "/mdr/sdtm/1-2/classes/Events/variables/--SDISAB", "title": "Persist or Signif Disability/Incapacity", "type": "Class Variable"}, "rootItem": {"href": "/mdr/root/sdtm/classes/Events/variables/--SDISAB", "title": "Version-agnostic anchor resource for SDTM variable Events.--SDISAB", "type": "Root Data Element"}, "self": {"href": "/mdr/sdtm/1-3/classes/Events/variables/--SDISAB", "title": "Persist or Signif Disability/Incapacity", "type": "Class Variable"}}, "description": "Did the event result in persistent or significant disability/incapacity? Valid values are \"Y\" and \"N\".", "label": "Persist or Signif Disability/Incapacity", "name": "--SDISAB", "ordinal": "32", "role": "Record Qualifier", "roleDescription": "Record Qualifier", "simpleDatatype": "Char"}, {"_links": {"parentClass": {"href": "/mdr/sdtm/1-3/classes/Events", "title": "Events Observation Class", "type": "Class"}, "parentProduct": {"href": "/mdr/sdtm/1-3", "title": "Study Data Tabulation Model Version 1.3", "type": "Foundational Model"}, "priorVersion": {"href": "/mdr/sdtm/1-2/classes/Events/variables/--SDTH", "title": "Results in Death", "type": "Class Variable"}, "rootItem": {"href": "/mdr/root/sdtm/classes/Events/variables/--SDTH", "title": "Version-agnostic anchor resource for SDTM variable Events.--SDTH", "type": "Root Data Element"}, "self": {"href": "/mdr/sdtm/1-3/classes/Events/variables/--SDTH", "title": "Results in Death", "type": "Class Variable"}}, "description": "Did the event result in death? Valid values are \"Y\" and \"N\".", "label": "Results in Death", "name": "--SDTH", "ordinal": "33", "role": "Record Qualifier", "roleDescription": "Record Qualifier", "simpleDatatype": "Char"}, {"_links": {"parentClass": {"href": "/mdr/sdtm/1-3/classes/Events", "title": "Events Observation Class", "type": "Class"}, "parentProduct": {"href": "/mdr/sdtm/1-3", "title": "Study Data Tabulation Model Version 1.3", "type": "Foundational Model"}, "priorVersion": {"href": "/mdr/sdtm/1-2/classes/Events/variables/--SHOSP", "title": "Requires or Prolongs Hospitalization", "type": "Class Variable"}, "rootItem": {"href": "/mdr/root/sdtm/classes/Events/variables/--SHOSP", "title": "Version-agnostic anchor resource for SDTM variable Events.--SHOSP", "type": "Root Data Element"}, "self": {"href": "/mdr/sdtm/1-3/classes/Events/variables/--SHOSP", "title": "Requires or Prolongs Hospitalization", "type": "Class Variable"}}, "description": "Did the event require or prolong hospitalization? Valid values are \"Y\" and \"N\".", "label": "Requires or Prolongs Hospitalization", "name": "--SHOSP", "ordinal": "34", "role": "Record Qualifier", "roleDescription": "Record Qualifier", "simpleDatatype": "Char"}, {"_links": {"parentClass": {"href": "/mdr/sdtm/1-3/classes/Events", "title": "Events Observation Class", "type": "Class"}, "parentProduct": {"href": "/mdr/sdtm/1-3", "title": "Study Data Tabulation Model Version 1.3", "type": "Foundational Model"}, "priorVersion": {"href": "/mdr/sdtm/1-2/classes/Events/variables/--SLIFE", "title": "Is Life Threatening", "type": "Class Variable"}, "rootItem": {"href": "/mdr/root/sdtm/classes/Events/variables/--SLIFE", "title": "Version-agnostic anchor resource for SDTM variable Events.--SLIFE", "type": "Root Data Element"}, "self": {"href": "/mdr/sdtm/1-3/classes/Events/variables/--SLIFE", "title": "Is Life Threatening", "type": "Class Variable"}}, "description": "Was the event life threatening? Valid values are \"Y\" and \"N\".", "label": "Is Life Threatening", "name": "--SLIFE", "ordinal": "35", "role": "Record Qualifier", "roleDescription": "Record Qualifier", "simpleDatatype": "Char"}, {"_links": {"parentClass": {"href": "/mdr/sdtm/1-3/classes/Events", "title": "Events Observation Class", "type": "Class"}, "parentProduct": {"href": "/mdr/sdtm/1-3", "title": "Study Data Tabulation Model Version 1.3", "type": "Foundational Model"}, "priorVersion": {"href": "/mdr/sdtm/1-2/classes/Events/variables/--SOD", "title": "Occurred with Overdose", "type": "Class Variable"}, "rootItem": {"href": "/mdr/root/sdtm/classes/Events/variables/--SOD", "title": "Version-agnostic anchor resource for SDTM variable Events.--SOD", "type": "Root Data Element"}, "self": {"href": "/mdr/sdtm/1-3/classes/Events/variables/--SOD", "title": "Occurred with Overdose", "type": "Class Variable"}}, "description": "Did the event occur with an overdose? Valid values are \"Y\" and \"N\".", "label": "Occurred with Overdose", "name": "--SOD", "ordinal": "36", "role": "Record Qualifier", "roleDescription": "Record Qualifier", "simpleDatatype": "Char"}, {"_links": {"parentClass": {"href": "/mdr/sdtm/1-3/classes/Events", "title": "Events Observation Class", "type": "Class"}, "parentProduct": {"href": "/mdr/sdtm/1-3", "title": "Study Data Tabulation Model Version 1.3", "type": "Foundational Model"}, "priorVersion": {"href": "/mdr/sdtm/1-2/classes/Events/variables/--SMIE", "title": "Other Medically Important Serious Event", "type": "Class Variable"}, "rootItem": {"href": "/mdr/root/sdtm/classes/Events/variables/--SMIE", "title": "Version-agnostic anchor resource for SDTM variable Events.--SMIE", "type": "Root Data Element"}, "self": {"href": "/mdr/sdtm/1-3/classes/Events/variables/--SMIE", "title": "Other Medically Important Serious Event", "type": "Class Variable"}}, "description": "Do additional categories for seriousness apply? Valid values are \"Y\" and \"N\".", "label": "Other Medically Important Serious Event", "name": "--SMIE", "ordinal": "37", "role": "Record Qualifier", "roleDescription": "Record Qualifier", "simpleDatatype": "Char"}, {"_links": {"parentClass": {"href": "/mdr/sdtm/1-3/classes/Events", "title": "Events Observation Class", "type": "Class"}, "parentProduct": {"href": "/mdr/sdtm/1-3", "title": "Study Data Tabulation Model Version 1.3", "type": "Foundational Model"}, "priorVersion": {"href": "/mdr/sdtm/1-2/classes/Events/variables/--CONTRT", "title": "Concomitant or Additional Trtmnt Given", "type": "Class Variable"}, "rootItem": {"href": "/mdr/root/sdtm/classes/Events/variables/--CONTRT", "title": "Version-agnostic anchor resource for SDTM variable Events.--CONTRT", "type": "Root Data Element"}, "self": {"href": "/mdr/sdtm/1-3/classes/Events/variables/--CONTRT", "title": "Concomitant or Additional Trtmnt Given", "type": "Class Variable"}}, "description": "Was another treatment given because of the occurrence of the event? Valid values are \"Y\" and \"N\".", "label": "Concomitant or Additional Trtmnt Given", "name": "--CONTRT", "ordinal": "38", "role": "Record Qualifier", "roleDescription": "Record Qualifier", "simpleDatatype": "Char"}, {"_links": {"parentClass": {"href": "/mdr/sdtm/1-3/classes/Events", "title": "Events Observation Class", "type": "Class"}, "parentProduct": {"href": "/mdr/sdtm/1-3", "title": "Study Data Tabulation Model Version 1.3", "type": "Foundational Model"}, "priorVersion": {"href": "/mdr/sdtm/1-2/classes/Events/variables/--TOX", "title": "Toxicity", "type": "Class Variable"}, "qualifiesVariables": [{"href": "/mdr/sdtm/1-3/classes/Events/variables/--TOXGR", "title": "Toxicity Grade", "type": "Class Variable"}], "rootItem": {"href": "/mdr/root/sdtm/classes/Events/variables/--TOX", "title": "Version-agnostic anchor resource for SDTM variable Events.--TOX", "type": "Root Data Element"}, "self": {"href": "/mdr/sdtm/1-3/classes/Events/variables/--TOX", "title": "Toxicity", "type": "Class Variable"}}, "description": "Description of toxicity quantified by --TOXGR such as NCI CTCAE Short Name. Examples: HYPERCALCEMIA, HYPOCALCEMIA. Sponsor should specify which scale and version is used in the Sponsor Comments column of the Define.xml document.", "label": "Toxicity", "name": "--TOX", "ordinal": "39", "role": "Variable Qualifier", "roleDescription": "Variable Qualifier of --TOXGR", "simpleDatatype": "Char"}, {"_links": {"parentClass": {"href": "/mdr/sdtm/1-3/classes/Events", "title": "Events Observation Class", "type": "Class"}, "parentProduct": {"href": "/mdr/sdtm/1-3", "title": "Study Data Tabulation Model Version 1.3", "type": "Foundational Model"}, "priorVersion": {"href": "/mdr/sdtm/1-2/classes/Events/variables/--TOXGR", "title": "Toxicity Grade", "type": "Class Variable"}, "rootItem": {"href": "/mdr/root/sdtm/classes/Events/variables/--TOXGR", "title": "Version-agnostic anchor resource for SDTM variable Events.--TOXGR", "type": "Root Data Element"}, "self": {"href": "/mdr/sdtm/1-3/classes/Events/variables/--TOXGR", "title": "Toxicity Grade", "type": "Class Variable"}}, "description": "Records toxicity grade using a standard toxicity scale (such as the NCI CTCAE). Sponsor should specify which scale and version is used in the Sponsor Comments column of the Define.xml document.", "label": "Toxicity Grade", "name": "--TOXGR", "ordinal": "40", "role": "Record Qualifier", "roleDescription": "Record Qualifier", "simpleDatatype": "Char"}], "description": "This SDTM class captures planned protocol milestones such as randomization and study completion, and occurrences, conditions, or incidents independent of planned study evaluations occurring during the trial (e.g., adverse events) or prior to the trial (e.g., medical history). (Source: CDISC Controlled Terminology, GNRLOBSC, C103372, 2018-06-29)", "label": "Events Observation Class", "name": "Events", "ordinal": "3"}, {"_links": {"parentClass": {"href": "/mdr/sdtm/1-3/classes/GeneralObservations", "title": "General Observation Class", "type": "Class"}, "parentProduct": {"href": "/mdr/sdtm/1-3", "title": "Study Data Tabulation Model Version 1.3", "type": "Foundational Model"}, "priorVersion": {"href": "/mdr/sdtm/1-2/classes/Findings", "title": "Findings Observation Class", "type": "Class"}, "self": {"href": "/mdr/sdtm/1-3/classes/Findings", "title": "Findings Observation Class", "type": "Class"}, "subclasses": [{"href": "/mdr/sdtm/1-3/classes/FindingsAbout", "title": "Findings About Events or Interventions", "type": "Class"}]}, "classVariables": [{"_links": {"parentClass": {"href": "/mdr/sdtm/1-3/classes/Findings", "title": "Findings Observation Class", "type": "Class"}, "parentProduct": {"href": "/mdr/sdtm/1-3", "title": "Study Data Tabulation Model Version 1.3", "type": "Foundational Model"}, "priorVersion": {"href": "/mdr/sdtm/1-2/classes/Findings/variables/--TESTCD", "title": "Short Name of Measurement, Test or Examination", "type": "Class Variable"}, "rootItem": {"href": "/mdr/root/sdtm/classes/Findings/variables/--TESTCD", "title": "Version-agnostic anchor resource for SDTM variable Findings.--TESTCD", "type": "Root Data Element"}, "self": {"href": "/mdr/sdtm/1-3/classes/Findings/variables/--TESTCD", "title": "Short Name of Measurement, Test or Examination", "type": "Class Variable"}}, "description": "Short character value for --TEST used as a column name when converting a dataset from a vertical format to a horizontal format. The short value can be up to 8 characters. Examples: PLAT, SYSBP, RRMIN, EYEEXAM.", "label": "Short Name of Measurement, Test or Examination", "name": "--TESTCD", "ordinal": "1", "role": "Topic", "roleDescription": "Topic", "simpleDatatype": "Char"}, {"_links": {"parentClass": {"href": "/mdr/sdtm/1-3/classes/Findings", "title": "Findings Observation Class", "type": "Class"}, "parentProduct": {"href": "/mdr/sdtm/1-3", "title": "Study Data Tabulation Model Version 1.3", "type": "Foundational Model"}, "priorVersion": {"href": "/mdr/sdtm/1-2/classes/Findings/variables/--TEST", "title": "Name of Measurement, Test or Examination", "type": "Class Variable"}, "qualifiesVariables": [{"href": "/mdr/sdtm/1-3/classes/Findings/variables/--TESTCD", "title": "Short Name of Measurement, Test or Examination", "type": "Class Variable"}], "rootItem": {"href": "/mdr/root/sdtm/classes/Findings/variables/--TEST", "title": "Version-agnostic anchor resource for SDTM variable Findings.--TEST", "type": "Root Data Element"}, "self": {"href": "/mdr/sdtm/1-3/classes/Findings/variables/--TEST", "title": "Name of Measurement, Test or Examination", "type": "Class Variable"}}, "description": "Long name For --TESTCD. Examples: Platelet, Systolic Blood Pressure, Summary (Min) RR Duration, Eye Examination.", "label": "Name of Measurement, Test or Examination", "name": "--TEST", "ordinal": "2", "role": "Synonym Qualifier", "roleDescription": "Synonym Qualifier of --TESTCD", "simpleDatatype": "Char"}, {"_links": {"parentClass": {"href": "/mdr/sdtm/1-3/classes/Findings", "title": "Findings Observation Class", "type": "Class"}, "parentProduct": {"href": "/mdr/sdtm/1-3", "title": "Study Data Tabulation Model Version 1.3", "type": "Foundational Model"}, "priorVersion": {"href": "/mdr/sdtm/1-2/classes/Findings/variables/--MODIFY", "title": "Modified Term", "type": "Class Variable"}, "qualifiesVariables": [{"href": "/mdr/sdtm/1-3/classes/Findings/variables/--ORRES", "title": "Result or Finding in Original Units", "type": "Class Variable"}], "rootItem": {"href": "/mdr/root/sdtm/classes/Findings/variables/--MODIFY", "title": "Version-agnostic anchor resource for SDTM variable Findings.--MODIFY", "type": "Root Data Element"}, "self": {"href": "/mdr/sdtm/1-3/classes/Findings/variables/--MODIFY", "title": "Modified Term", "type": "Class Variable"}}, "description": "If the value of --ORRES is modified for coding purposes, then the modified text is placed here.", "label": "Modified Term", "name": "--MODIFY", "ordinal": "3", "role": "Synonym Qualifier", "roleDescription": "Synonym Qualifier of --ORRES", "simpleDatatype": "Char"}, {"_links": {"parentClass": {"href": "/mdr/sdtm/1-3/classes/Findings", "title": "Findings Observation Class", "type": "Class"}, "parentProduct": {"href": "/mdr/sdtm/1-3", "title": "Study Data Tabulation Model Version 1.3", "type": "Foundational Model"}, "priorVersion": {"href": "/mdr/sdtm/1-2/classes/Findings/variables/--CAT", "title": "Category", "type": "Class Variable"}, "rootItem": {"href": "/mdr/root/sdtm/classes/Findings/variables/--CAT", "title": "Version-agnostic anchor resource for SDTM variable Findings.--CAT", "type": "Root Data Element"}, "self": {"href": "/mdr/sdtm/1-3/classes/Findings/variables/--CAT", "title": "Category", "type": "Class Variable"}}, "description": "Used to define a category of topic-variable values. Examples: HEMATOLOGY, URINALYSIS, CHEMISTRY, HAMILTON DEPRESSION SCALE, SF36.", "label": "Category", "name": "--CAT", "ordinal": "4", "role": "Grouping Qualifier", "roleDescription": "Grouping Qualifier", "simpleDatatype": "Char"}, {"_links": {"parentClass": {"href": "/mdr/sdtm/1-3/classes/Findings", "title": "Findings Observation Class", "type": "Class"}, "parentProduct": {"href": "/mdr/sdtm/1-3", "title": "Study Data Tabulation Model Version 1.3", "type": "Foundational Model"}, "priorVersion": {"href": "/mdr/sdtm/1-2/classes/Findings/variables/--SCAT", "title": "Subcategory", "type": "Class Variable"}, "rootItem": {"href": "/mdr/root/sdtm/classes/Findings/variables/--SCAT", "title": "Version-agnostic anchor resource for SDTM variable Findings.--SCAT", "type": "Root Data Element"}, "self": {"href": "/mdr/sdtm/1-3/classes/Findings/variables/--SCAT", "title": "Subcategory", "type": "Class Variable"}}, "description": "Used to define a further categorization of --CAT values. Example: DIFFERENTIAL.", "label": "Subcategory", "name": "--SCAT", "ordinal": "5", "role": "Grouping Qualifier", "roleDescription": "Grouping Qualifier", "simpleDatatype": "Char"}, {"_links": {"parentClass": {"href": "/mdr/sdtm/1-3/classes/Findings", "title": "Findings Observation Class", "type": "Class"}, "parentProduct": {"href": "/mdr/sdtm/1-3", "title": "Study Data Tabulation Model Version 1.3", "type": "Foundational Model"}, "priorVersion": {"href": "/mdr/sdtm/1-2/classes/Findings/variables/--POS", "title": "Position of Subject During Observation", "type": "Class Variable"}, "rootItem": {"href": "/mdr/root/sdtm/classes/Findings/variables/--POS", "title": "Version-agnostic anchor resource for SDTM variable Findings.--POS", "type": "Root Data Element"}, "self": {"href": "/mdr/sdtm/1-3/classes/Findings/variables/--POS", "title": "Position of Subject During Observation", "type": "Class Variable"}}, "description": "Position of the subject during a measurement or examination. Examples: SUPINE, STANDING, SITTING.", "label": "Position of Subject During Observation", "name": "--POS", "ordinal": "6", "role": "Record Qualifier", "roleDescription": "Record Qualifier", "simpleDatatype": "Char"}, {"_links": {"parentClass": {"href": "/mdr/sdtm/1-3/classes/Findings", "title": "Findings Observation Class", "type": "Class"}, "parentProduct": {"href": "/mdr/sdtm/1-3", "title": "Study Data Tabulation Model Version 1.3", "type": "Foundational Model"}, "priorVersion": {"href": "/mdr/sdtm/1-2/classes/Findings/variables/--BODSYS", "title": "Body System or Organ Class", "type": "Class Variable"}, "rootItem": {"href": "/mdr/root/sdtm/classes/Findings/variables/--BODSYS", "title": "Version-agnostic anchor resource for SDTM variable Findings.--BODSYS", "type": "Root Data Element"}, "self": {"href": "/mdr/sdtm/1-3/classes/Findings/variables/--BODSYS", "title": "Body System or Organ Class", "type": "Class Variable"}}, "description": "Body System or Organ Class that is involved for a finding from the standard hierarchy for dictionary-coded results. Example: MedDRA SOC.", "label": "Body System or Organ Class", "name": "--BODSYS", "ordinal": "7", "role": "Record Qualifier", "roleDescription": "Record Qualifier", "simpleDatatype": "Char"}, {"_links": {"parentClass": {"href": "/mdr/sdtm/1-3/classes/Findings", "title": "Findings Observation Class", "type": "Class"}, "parentProduct": {"href": "/mdr/sdtm/1-3", "title": "Study Data Tabulation Model Version 1.3", "type": "Foundational Model"}, "priorVersion": {"href": "/mdr/sdtm/1-2/classes/Findings/variables/--ORRES", "title": "Result or Finding in Original Units", "type": "Class Variable"}, "rootItem": {"href": "/mdr/root/sdtm/classes/Findings/variables/--ORRES", "title": "Version-agnostic anchor resource for SDTM variable Findings.--ORRES", "type": "Root Data Element"}, "self": {"href": "/mdr/sdtm/1-3/classes/Findings/variables/--ORRES", "title": "Result or Finding in Original Units", "type": "Class Variable"}}, "description": "Result of the measurement or finding as originally received or collected. Examples: 120, <1, POS.", "label": "Result or Finding in Original Units", "name": "--ORRES", "ordinal": "8", "role": "Result Qualifier", "roleDescription": "Result Qualifier", "simpleDatatype": "Char"}, {"_links": {"parentClass": {"href": "/mdr/sdtm/1-3/classes/Findings", "title": "Findings Observation Class", "type": "Class"}, "parentProduct": {"href": "/mdr/sdtm/1-3", "title": "Study Data Tabulation Model Version 1.3", "type": "Foundational Model"}, "priorVersion": {"href": "/mdr/sdtm/1-2/classes/Findings/variables/--ORRESU", "title": "Original Units", "type": "Class Variable"}, "qualifiesVariables": [{"href": "/mdr/sdtm/1-3/classes/Findings/variables/--ORRES", "title": "Result or Finding in Original Units", "type": "Class Variable"}], "rootItem": {"href": "/mdr/root/sdtm/classes/Findings/variables/--ORRESU", "title": "Version-agnostic anchor resource for SDTM variable Findings.--ORRESU", "type": "Root Data Element"}, "self": {"href": "/mdr/sdtm/1-3/classes/Findings/variables/--ORRESU", "title": "Original Units", "type": "Class Variable"}}, "description": "Unit for --ORRES. Examples: IN, LB, kg/L.", "label": "Original Units", "name": "--ORRESU", "ordinal": "9", "role": "Variable Qualifier", "roleDescription": "Variable Qualifier of --ORRES", "simpleDatatype": "Char"}, {"_links": {"parentClass": {"href": "/mdr/sdtm/1-3/classes/Findings", "title": "Findings Observation Class", "type": "Class"}, "parentProduct": {"href": "/mdr/sdtm/1-3", "title": "Study Data Tabulation Model Version 1.3", "type": "Foundational Model"}, "priorVersion": {"href": "/mdr/sdtm/1-2/classes/Findings/variables/--ORNRLO", "title": "Normal Range Lower Limit-Original Units", "type": "Class Variable"}, "qualifiesVariables": [{"href": "/mdr/sdtm/1-3/classes/Findings/variables/--ORRES", "title": "Result or Finding in Original Units", "type": "Class Variable"}], "rootItem": {"href": "/mdr/root/sdtm/classes/Findings/variables/--ORNRLO", "title": "Version-agnostic anchor resource for SDTM variable Findings.--ORNRLO", "type": "Root Data Element"}, "self": {"href": "/mdr/sdtm/1-3/classes/Findings/variables/--ORNRLO", "title": "Normal Range Lower Limit-Original Units", "type": "Class Variable"}}, "description": "Lower end of normal range or reference range for results stored in --ORRES.", "label": "Normal Range Lower Limit-Original Units", "name": "--ORNRLO", "ordinal": "10", "role": "Variable Qualifier", "roleDescription": "Variable Qualifier of --ORRES", "simpleDatatype": "Char"}, {"_links": {"parentClass": {"href": "/mdr/sdtm/1-3/classes/Findings", "title": "Findings Observation Class", "type": "Class"}, "parentProduct": {"href": "/mdr/sdtm/1-3", "title": "Study Data Tabulation Model Version 1.3", "type": "Foundational Model"}, "priorVersion": {"href": "/mdr/sdtm/1-2/classes/Findings/variables/--ORNRHI", "title": "Normal Range Upper Limit-Original Units", "type": "Class Variable"}, "qualifiesVariables": [{"href": "/mdr/sdtm/1-3/classes/Findings/variables/--ORRES", "title": "Result or Finding in Original Units", "type": "Class Variable"}], "rootItem": {"href": "/mdr/root/sdtm/classes/Findings/variables/--ORNRHI", "title": "Version-agnostic anchor resource for SDTM variable Findings.--ORNRHI", "type": "Root Data Element"}, "self": {"href": "/mdr/sdtm/1-3/classes/Findings/variables/--ORNRHI", "title": "Normal Range Upper Limit-Original Units", "type": "Class Variable"}}, "description": "Upper end of normal range or reference range for results stored in --ORRES.", "label": "Normal Range Upper Limit-Original Units", "name": "--ORNRHI", "ordinal": "11", "role": "Variable Qualifier", "roleDescription": "Variable Qualifier of --ORRES", "simpleDatatype": "Char"}, {"_links": {"parentClass": {"href": "/mdr/sdtm/1-3/classes/Findings", "title": "Findings Observation Class", "type": "Class"}, "parentProduct": {"href": "/mdr/sdtm/1-3", "title": "Study Data Tabulation Model Version 1.3", "type": "Foundational Model"}, "priorVersion": {"href": "/mdr/sdtm/1-2/classes/Findings/variables/--STRESC", "title": "Result or Finding in Standard Format", "type": "Class Variable"}, "rootItem": {"href": "/mdr/root/sdtm/classes/Findings/variables/--STRESC", "title": "Version-agnostic anchor resource for SDTM variable Findings.--STRESC", "type": "Root Data Element"}, "self": {"href": "/mdr/sdtm/1-3/classes/Findings/variables/--STRESC", "title": "Result or Finding in Standard Format", "type": "Class Variable"}}, "description": "Contains the result value for all findings, copied or derived from --ORRES in a standard format or in standard units. --STRESC should store all results or findings in character format; if results are numeric, they should also be stored in numeric format in --STRESN. For example, if various tests have results \"NONE\", \"NEG\", and \"NEGATIVE\" in --ORRES and these results effectively have the same meaning, they could be represented in standard format in --STRESC as \"NEGATIVE\".", "label": "Result or Finding in Standard Format", "name": "--STRESC", "ordinal": "12", "role": "Result Qualifier", "roleDescription": "Result Qualifier", "simpleDatatype": "Char"}, {"_links": {"parentClass": {"href": "/mdr/sdtm/1-3/classes/Findings", "title": "Findings Observation Class", "type": "Class"}, "parentProduct": {"href": "/mdr/sdtm/1-3", "title": "Study Data Tabulation Model Version 1.3", "type": "Foundational Model"}, "priorVersion": {"href": "/mdr/sdtm/1-2/classes/Findings/variables/--STRESN", "title": "Numeric Result/Finding in Standard Units", "type": "Class Variable"}, "rootItem": {"href": "/mdr/root/sdtm/classes/Findings/variables/--STRESN", "title": "Version-agnostic anchor resource for SDTM variable Findings.--STRESN", "type": "Root Data Element"}, "self": {"href": "/mdr/sdtm/1-3/classes/Findings/variables/--STRESN", "title": "Numeric Result/Finding in Standard Units", "type": "Class Variable"}}, "description": "Used for continuous or numeric results or findings in standard format; copied in numeric format from --STRESC. --STRESN should store all numeric test results or findings.", "label": "Numeric Result/Finding in Standard Units", "name": "--STRESN", "ordinal": "13", "role": "Result Qualifier", "roleDescription": "Result Qualifier", "simpleDatatype": "Num"}, {"_links": {"parentClass": {"href": "/mdr/sdtm/1-3/classes/Findings", "title": "Findings Observation Class", "type": "Class"}, "parentProduct": {"href": "/mdr/sdtm/1-3", "title": "Study Data Tabulation Model Version 1.3", "type": "Foundational Model"}, "priorVersion": {"href": "/mdr/sdtm/1-2/classes/Findings/variables/--STRESU", "title": "Standard Units", "type": "Class Variable"}, "qualifiesVariables": [{"href": "/mdr/sdtm/1-3/classes/Findings/variables/--STRESN", "title": "Numeric Result/Finding in Standard Units", "type": "Class Variable"}, {"href": "/mdr/sdtm/1-3/classes/Findings/variables/--STRESC", "title": "Result or Finding in Standard Format", "type": "Class Variable"}], "rootItem": {"href": "/mdr/root/sdtm/classes/Findings/variables/--STRESU", "title": "Version-agnostic anchor resource for SDTM variable Findings.--STRESU", "type": "Root Data Element"}, "self": {"href": "/mdr/sdtm/1-3/classes/Findings/variables/--STRESU", "title": "Standard Units", "type": "Class Variable"}}, "description": "Standardized units used for --STRESC and --STRESN. Example: mol/L.", "label": "Standard Units", "name": "--STRESU", "ordinal": "14", "role": "Variable Qualifier", "roleDescription": "Variable Qualifier of --STRESC and --STRESN", "simpleDatatype": "Char"}, {"_links": {"parentClass": {"href": "/mdr/sdtm/1-3/classes/Findings", "title": "Findings Observation Class", "type": "Class"}, "parentProduct": {"href": "/mdr/sdtm/1-3", "title": "Study Data Tabulation Model Version 1.3", "type": "Foundational Model"}, "priorVersion": {"href": "/mdr/sdtm/1-2/classes/Findings/variables/--STNRLO", "title": "Normal Range Lower Limit-Standard Units", "type": "Class Variable"}, "qualifiesVariables": [{"href": "/mdr/sdtm/1-3/classes/Findings/variables/--STRESN", "title": "Numeric Result/Finding in Standard Units", "type": "Class Variable"}, {"href": "/mdr/sdtm/1-3/classes/Findings/variables/--STRESC", "title": "Result or Finding in Standard Format", "type": "Class Variable"}], "rootItem": {"href": "/mdr/root/sdtm/classes/Findings/variables/--STNRLO", "title": "Version-agnostic anchor resource for SDTM variable Findings.--STNRLO", "type": "Root Data Element"}, "self": {"href": "/mdr/sdtm/1-3/classes/Findings/variables/--STNRLO", "title": "Normal Range Lower Limit-Standard Units", "type": "Class Variable"}}, "description": "Lower end of normal range or reference range for standardized results (e.g., --STRESC, --STRESN) represented in standardized units (--STRESU).", "label": "Normal Range Lower Limit-Standard Units", "name": "--STNRLO", "ordinal": "15", "role": "Variable Qualifier", "roleDescription": "Variable Qualifier of --STRESC and --STRESN", "simpleDatatype": "Num"}, {"_links": {"parentClass": {"href": "/mdr/sdtm/1-3/classes/Findings", "title": "Findings Observation Class", "type": "Class"}, "parentProduct": {"href": "/mdr/sdtm/1-3", "title": "Study Data Tabulation Model Version 1.3", "type": "Foundational Model"}, "priorVersion": {"href": "/mdr/sdtm/1-2/classes/Findings/variables/--STNRHI", "title": "Normal Range Upper Limit-Standard Units", "type": "Class Variable"}, "qualifiesVariables": [{"href": "/mdr/sdtm/1-3/classes/Findings/variables/--STRESN", "title": "Numeric Result/Finding in Standard Units", "type": "Class Variable"}, {"href": "/mdr/sdtm/1-3/classes/Findings/variables/--STRESC", "title": "Result or Finding in Standard Format", "type": "Class Variable"}], "rootItem": {"href": "/mdr/root/sdtm/classes/Findings/variables/--STNRHI", "title": "Version-agnostic anchor resource for SDTM variable Findings.--STNRHI", "type": "Root Data Element"}, "self": {"href": "/mdr/sdtm/1-3/classes/Findings/variables/--STNRHI", "title": "Normal Range Upper Limit-Standard Units", "type": "Class Variable"}}, "description": "Upper end of normal range or reference range for standardized results (e.g., --STRESC, --STRESN) represented in standardized units (--STRESU).", "label": "Normal Range Upper Limit-Standard Units", "name": "--STNRHI", "ordinal": "16", "role": "Variable Qualifier", "roleDescription": "Variable Qualifier of --STRESC and --STRESN", "simpleDatatype": "Num"}, {"_links": {"parentClass": {"href": "/mdr/sdtm/1-3/classes/Findings", "title": "Findings Observation Class", "type": "Class"}, "parentProduct": {"href": "/mdr/sdtm/1-3", "title": "Study Data Tabulation Model Version 1.3", "type": "Foundational Model"}, "priorVersion": {"href": "/mdr/sdtm/1-2/classes/Findings/variables/--STNRC", "title": "Normal Range for Character Results", "type": "Class Variable"}, "qualifiesVariables": [{"href": "/mdr/sdtm/1-3/classes/Findings/variables/--STRESC", "title": "Result or Finding in Standard Format", "type": "Class Variable"}], "rootItem": {"href": "/mdr/root/sdtm/classes/Findings/variables/--STNRC", "title": "Version-agnostic anchor resource for SDTM variable Findings.--STNRC", "type": "Root Data Element"}, "self": {"href": "/mdr/sdtm/1-3/classes/Findings/variables/--STNRC", "title": "Normal Range for Character Results", "type": "Class Variable"}}, "description": "Normal range or reference range for results stored in --STRESC that are character in ordinal or categorical scale. Example: Negative to Trace.", "label": "Normal Range for Character Results", "name": "--STNRC", "ordinal": "17", "role": "Variable Qualifier", "roleDescription": "Variable Qualifier of --STRESC", "simpleDatatype": "Char"}, {"_links": {"parentClass": {"href": "/mdr/sdtm/1-3/classes/Findings", "title": "Findings Observation Class", "type": "Class"}, "parentProduct": {"href": "/mdr/sdtm/1-3", "title": "Study Data Tabulation Model Version 1.3", "type": "Foundational Model"}, "priorVersion": {"href": "/mdr/sdtm/1-2/classes/Findings/variables/--NRIND", "title": "Normal/Reference Range Indicator", "type": "Class Variable"}, "qualifiesVariables": [{"href": "/mdr/sdtm/1-3/classes/Findings/variables/--ORRES", "title": "Result or Finding in Original Units", "type": "Class Variable"}], "rootItem": {"href": "/mdr/root/sdtm/classes/Findings/variables/--NRIND", "title": "Version-agnostic anchor resource for SDTM variable Findings.--NRIND", "type": "Root Data Element"}, "self": {"href": "/mdr/sdtm/1-3/classes/Findings/variables/--NRIND", "title": "Normal/Reference Range Indicator", "type": "Class Variable"}}, "description": "Used to indicate the value is outside the normal range or reference range. May be defined by --ORNRLO and --ORNRHI or other objective criteria. Examples: Y, N; HIGH, LOW; NORMAL; ABNORMAL.", "label": "Normal/Reference Range Indicator", "name": "--NRIND", "ordinal": "18", "role": "Variable Qualifier", "roleDescription": "Variable Qualifier of --ORRES", "simpleDatatype": "Char"}, {"_links": {"parentClass": {"href": "/mdr/sdtm/1-3/classes/Findings", "title": "Findings Observation Class", "type": "Class"}, "parentProduct": {"href": "/mdr/sdtm/1-3", "title": "Study Data Tabulation Model Version 1.3", "type": "Foundational Model"}, "priorVersion": {"href": "/mdr/sdtm/1-2/classes/Findings/variables/--RESCAT", "title": "Result Category", "type": "Class Variable"}, "qualifiesVariables": [{"href": "/mdr/sdtm/1-3/classes/Findings/variables/--ORRES", "title": "Result or Finding in Original Units", "type": "Class Variable"}], "rootItem": {"href": "/mdr/root/sdtm/classes/Findings/variables/--RESCAT", "title": "Version-agnostic anchor resource for SDTM variable Findings.--RESCAT", "type": "Root Data Element"}, "self": {"href": "/mdr/sdtm/1-3/classes/Findings/variables/--RESCAT", "title": "Result Category", "type": "Class Variable"}}, "description": "Used to categorize the result of a finding. Example: MALIGNANT or BENIGN for tumor findings.", "label": "Result Category", "name": "--RESCAT", "ordinal": "19", "role": "Variable Qualifier", "roleDescription": "Variable Qualifier of --ORRES", "simpleDatatype": "Char"}, {"_links": {"parentClass": {"href": "/mdr/sdtm/1-3/classes/Findings", "title": "Findings Observation Class", "type": "Class"}, "parentProduct": {"href": "/mdr/sdtm/1-3", "title": "Study Data Tabulation Model Version 1.3", "type": "Foundational Model"}, "priorVersion": {"href": "/mdr/sdtm/1-2/classes/Findings/variables/--STAT", "title": "Completion Status", "type": "Class Variable"}, "rootItem": {"href": "/mdr/root/sdtm/classes/Findings/variables/--STAT", "title": "Version-agnostic anchor resource for SDTM variable Findings.--STAT", "type": "Root Data Element"}, "self": {"href": "/mdr/sdtm/1-3/classes/Findings/variables/--STAT", "title": "Completion Status", "type": "Class Variable"}}, "description": "Used to indicate that a question was not asked or a test was not done, or a test was attempted but did not generate a result. Should be null or have a value of NOT DONE.", "label": "Completion Status", "name": "--STAT", "ordinal": "20", "role": "Record Qualifier", "roleDescription": "Record Qualifier", "simpleDatatype": "Char"}, {"_links": {"parentClass": {"href": "/mdr/sdtm/1-3/classes/Findings", "title": "Findings Observation Class", "type": "Class"}, "parentProduct": {"href": "/mdr/sdtm/1-3", "title": "Study Data Tabulation Model Version 1.3", "type": "Foundational Model"}, "priorVersion": {"href": "/mdr/sdtm/1-2/classes/Findings/variables/--REASND", "title": "Reason Not Done", "type": "Class Variable"}, "rootItem": {"href": "/mdr/root/sdtm/classes/Findings/variables/--REASND", "title": "Version-agnostic anchor resource for SDTM variable Findings.--REASND", "type": "Root Data Element"}, "self": {"href": "/mdr/sdtm/1-3/classes/Findings/variables/--REASND", "title": "Reason Not Done", "type": "Class Variable"}}, "description": "Reason not done. Used in conjunction with --STAT when value is NOT DONE.", "label": "Reason Not Done", "name": "--REASND", "ordinal": "21", "role": "Record Qualifier", "roleDescription": "Record Qualifier", "simpleDatatype": "Char"}, {"_links": {"parentClass": {"href": "/mdr/sdtm/1-3/classes/Findings", "title": "Findings Observation Class", "type": "Class"}, "parentProduct": {"href": "/mdr/sdtm/1-3", "title": "Study Data Tabulation Model Version 1.3", "type": "Foundational Model"}, "priorVersion": {"href": "/mdr/sdtm/1-2/classes/Findings/variables/--XFN", "title": "External Filename", "type": "Class Variable"}, "rootItem": {"href": "/mdr/root/sdtm/classes/Findings/variables/--XFN", "title": "Version-agnostic anchor resource for SDTM variable Findings.--XFN", "type": "Root Data Element"}, "self": {"href": "/mdr/sdtm/1-3/classes/Findings/variables/--XFN", "title": "External Filename", "type": "Class Variable"}}, "description": "Filename for an external file, such as one for an ECG waveform or a medical image.", "label": "External Filename", "name": "--XFN", "ordinal": "22", "role": "Record Qualifier", "roleDescription": "Record Qualifier", "simpleDatatype": "Char"}, {"_links": {"parentClass": {"href": "/mdr/sdtm/1-3/classes/Findings", "title": "Findings Observation Class", "type": "Class"}, "parentProduct": {"href": "/mdr/sdtm/1-3", "title": "Study Data Tabulation Model Version 1.3", "type": "Foundational Model"}, "priorVersion": {"href": "/mdr/sdtm/1-2/classes/Findings/variables/--NAM", "title": "Laboratory/Vendor Name", "type": "Class Variable"}, "rootItem": {"href": "/mdr/root/sdtm/classes/Findings/variables/--NAM", "title": "Version-agnostic anchor resource for SDTM variable Findings.--NAM", "type": "Root Data Element"}, "self": {"href": "/mdr/sdtm/1-3/classes/Findings/variables/--NAM", "title": "Laboratory/Vendor Name", "type": "Class Variable"}}, "description": "Name or identifier of the vendor (e.g., laboratory) that provided the test results.", "label": "Laboratory/Vendor Name", "name": "--NAM", "ordinal": "23", "role": "Record Qualifier", "roleDescription": "Record Qualifier", "simpleDatatype": "Char"}, {"_links": {"parentClass": {"href": "/mdr/sdtm/1-3/classes/Findings", "title": "Findings Observation Class", "type": "Class"}, "parentProduct": {"href": "/mdr/sdtm/1-3", "title": "Study Data Tabulation Model Version 1.3", "type": "Foundational Model"}, "priorVersion": {"href": "/mdr/sdtm/1-2/classes/Findings/variables/--LOINC", "title": "LOINC Code", "type": "Class Variable"}, "qualifiesVariables": [{"href": "/mdr/sdtm/1-3/classes/Findings/variables/--TESTCD", "title": "Short Name of Measurement, Test or Examination", "type": "Class Variable"}], "rootItem": {"href": "/mdr/root/sdtm/classes/Findings/variables/--LOINC", "title": "Version-agnostic anchor resource for SDTM variable Findings.--LOINC", "type": "Root Data Element"}, "self": {"href": "/mdr/sdtm/1-3/classes/Findings/variables/--LOINC", "title": "LOINC Code", "type": "Class Variable"}}, "description": "Logical Observation Identifiers Names and Codes (LOINC) code for the topic variable such as a lab test.", "label": "LOINC Code", "name": "--LOINC", "ordinal": "24", "role": "Synonym Qualifier", "roleDescription": "Synonym Qualifier of --TESTCD", "simpleDatatype": "Char"}, {"_links": {"parentClass": {"href": "/mdr/sdtm/1-3/classes/Findings", "title": "Findings Observation Class", "type": "Class"}, "parentProduct": {"href": "/mdr/sdtm/1-3", "title": "Study Data Tabulation Model Version 1.3", "type": "Foundational Model"}, "priorVersion": {"href": "/mdr/sdtm/1-2/classes/Findings/variables/--SPEC", "title": "Specimen Material Type", "type": "Class Variable"}, "rootItem": {"href": "/mdr/root/sdtm/classes/Findings/variables/--SPEC", "title": "Version-agnostic anchor resource for SDTM variable Findings.--SPEC", "type": "Root Data Element"}, "self": {"href": "/mdr/sdtm/1-3/classes/Findings/variables/--SPEC", "title": "Specimen Material Type", "type": "Class Variable"}}, "description": "Defines the type of specimen used for a measurement. Examples: SERUM, PLASMA, URINE.", "label": "Specimen Material Type", "name": "--SPEC", "ordinal": "25", "role": "Record Qualifier", "roleDescription": "Record Qualifier", "simpleDatatype": "Char"}, {"_links": {"parentClass": {"href": "/mdr/sdtm/1-3/classes/Findings", "title": "Findings Observation Class", "type": "Class"}, "parentProduct": {"href": "/mdr/sdtm/1-3", "title": "Study Data Tabulation Model Version 1.3", "type": "Foundational Model"}, "qualifiesVariables": [{"href": "/mdr/sdtm/1-3/classes/Findings/variables/--SPEC", "title": "Specimen Material Type", "type": "Class Variable"}], "rootItem": {"href": "/mdr/root/sdtm/classes/Findings/variables/--ANTREG", "title": "Version-agnostic anchor resource for SDTM variable Findings.--ANTREG", "type": "Root Data Element"}, "self": {"href": "/mdr/sdtm/1-3/classes/Findings/variables/--ANTREG", "title": "Anatomical Region", "type": "Class Variable"}}, "description": "Defines the specific anatomical or biological region of a tissue, organ specimen or the region from which the specimen is obtained, as defined in the protocol, such as a section or part of what is described in the --SPEC variable. Examples: CORTEX, MEDULLA, MUCOSA", "label": "Anatomical Region", "name": "--ANTREG", "ordinal": "26", "role": "Variable Qualifier", "roleDescription": "Variable Qualifier of --SPEC", "simpleDatatype": "Char"}, {"_links": {"parentClass": {"href": "/mdr/sdtm/1-3/classes/Findings", "title": "Findings Observation Class", "type": "Class"}, "parentProduct": {"href": "/mdr/sdtm/1-3", "title": "Study Data Tabulation Model Version 1.3", "type": "Foundational Model"}, "priorVersion": {"href": "/mdr/sdtm/1-2/classes/Findings/variables/--SPCCND", "title": "Specimen Condition", "type": "Class Variable"}, "rootItem": {"href": "/mdr/root/sdtm/classes/Findings/variables/--SPCCND", "title": "Version-agnostic anchor resource for SDTM variable Findings.--SPCCND", "type": "Root Data Element"}, "self": {"href": "/mdr/sdtm/1-3/classes/Findings/variables/--SPCCND", "title": "Specimen Condition", "type": "Class Variable"}}, "description": "Defines the condition of the specimen. Example: CLOUDY.", "label": "Specimen Condition", "name": "--SPCCND", "ordinal": "27", "role": "Record Qualifier", "roleDescription": "Record Qualifier", "simpleDatatype": "Char"}, {"_links": {"parentClass": {"href": "/mdr/sdtm/1-3/classes/Findings", "title": "Findings Observation Class", "type": "Class"}, "parentProduct": {"href": "/mdr/sdtm/1-3", "title": "Study Data Tabulation Model Version 1.3", "type": "Foundational Model"}, "rootItem": {"href": "/mdr/root/sdtm/classes/Findings/variables/--SPCUFL", "title": "Version-agnostic anchor resource for SDTM variable Findings.--SPCUFL", "type": "Root Data Element"}, "self": {"href": "/mdr/sdtm/1-3/classes/Findings/variables/--SPCUFL", "title": "Specimen Usability for the Test", "type": "Class Variable"}}, "description": "Describes the usability of the specimen for the test. The value will be N if the specimen is not usable, and null if the specimen is usable.", "label": "Specimen Usability for the Test", "name": "--SPCUFL", "ordinal": "28", "role": "Record Qualifier", "roleDescription": "Record Qualifier", "simpleDatatype": "Char"}, {"_links": {"parentClass": {"href": "/mdr/sdtm/1-3/classes/Findings", "title": "Findings Observation Class", "type": "Class"}, "parentProduct": {"href": "/mdr/sdtm/1-3", "title": "Study Data Tabulation Model Version 1.3", "type": "Foundational Model"}, "priorVersion": {"href": "/mdr/sdtm/1-2/classes/Findings/variables/--LOC", "title": "Location Used for the Measurement", "type": "Class Variable"}, "rootItem": {"href": "/mdr/root/sdtm/classes/Findings/variables/--LOC", "title": "Version-agnostic anchor resource for SDTM variable Findings.--LOC", "type": "Root Data Element"}, "self": {"href": "/mdr/sdtm/1-3/classes/Findings/variables/--LOC", "title": "Location Used for the Measurement", "type": "Class Variable"}}, "description": "Anatomical location of the subject relevant to the collection of the measurement. Examples: RECTAL for temperature, ARM for blood pressure.", "label": "Location Used for the Measurement", "name": "--LOC", "ordinal": "29", "role": "Record Qualifier", "roleDescription": "Record Qualifier", "simpleDatatype": "Char"}, {"_links": {"parentClass": {"href": "/mdr/sdtm/1-3/classes/Findings", "title": "Findings Observation Class", "type": "Class"}, "parentProduct": {"href": "/mdr/sdtm/1-3", "title": "Study Data Tabulation Model Version 1.3", "type": "Foundational Model"}, "qualifiesVariables": [{"href": "/mdr/sdtm/1-3/classes/Findings/variables/--LOC", "title": "Location Used for the Measurement", "type": "Class Variable"}], "rootItem": {"href": "/mdr/root/sdtm/classes/Findings/variables/--LAT", "title": "Version-agnostic anchor resource for SDTM variable Findings.--LAT", "type": "Root Data Element"}, "self": {"href": "/mdr/sdtm/1-3/classes/Findings/variables/--LAT", "title": "Laterality", "type": "Class Variable"}}, "description": "Qualifier for anatomical location or specimen further detailing laterality. Examples: RIGHT, LEFT, BILATERAL", "label": "Laterality", "name": "--LAT", "ordinal": "30", "role": "Variable Qualifier", "roleDescription": "Variable Qualifier of --LOC", "simpleDatatype": "Char"}, {"_links": {"parentClass": {"href": "/mdr/sdtm/1-3/classes/Findings", "title": "Findings Observation Class", "type": "Class"}, "parentProduct": {"href": "/mdr/sdtm/1-3", "title": "Study Data Tabulation Model Version 1.3", "type": "Foundational Model"}, "qualifiesVariables": [{"href": "/mdr/sdtm/1-3/classes/Findings/variables/--LOC", "title": "Location Used for the Measurement", "type": "Class Variable"}], "rootItem": {"href": "/mdr/root/sdtm/classes/Findings/variables/--DIR", "title": "Version-agnostic anchor resource for SDTM variable Findings.--DIR", "type": "Root Data Element"}, "self": {"href": "/mdr/sdtm/1-3/classes/Findings/variables/--DIR", "title": "Directionality", "type": "Class Variable"}}, "description": "Qualifier for anatomical location or specimen further detailing directionality. Examples: ANTERIOR, LOWER, PROXIMAL", "label": "Directionality", "name": "--DIR", "ordinal": "31", "role": "Variable Qualifier", "roleDescription": "Variable Qualifier of --LOC", "simpleDatatype": "Char"}, {"_links": {"parentClass": {"href": "/mdr/sdtm/1-3/classes/Findings", "title": "Findings Observation Class", "type": "Class"}, "parentProduct": {"href": "/mdr/sdtm/1-3", "title": "Study Data Tabulation Model Version 1.3", "type": "Foundational Model"}, "qualifiesVariables": [{"href": "/mdr/sdtm/1-3/classes/Findings/variables/--LOC", "title": "Location Used for the Measurement", "type": "Class Variable"}], "rootItem": {"href": "/mdr/root/sdtm/classes/Findings/variables/--PORTOT", "title": "Version-agnostic anchor resource for SDTM variable Findings.--PORTOT", "type": "Root Data Element"}, "self": {"href": "/mdr/sdtm/1-3/classes/Findings/variables/--PORTOT", "title": "Portion or Totality", "type": "Class Variable"}}, "description": "Qualifier for anatomical location or specimen further detailing the distribution, which means arrangement of, apportioning of. . Examples: ENTIRE, SINGLE, SEGMENT, MANY.", "label": "Portion or Totality", "name": "--PORTOT", "ordinal": "32", "role": "Variable Qualifier", "roleDescription": "Variable Qualifier of --LOC", "simpleDatatype": "Char"}, {"_links": {"parentClass": {"href": "/mdr/sdtm/1-3/classes/Findings", "title": "Findings Observation Class", "type": "Class"}, "parentProduct": {"href": "/mdr/sdtm/1-3", "title": "Study Data Tabulation Model Version 1.3", "type": "Foundational Model"}, "priorVersion": {"href": "/mdr/sdtm/1-2/classes/Findings/variables/--METHOD", "title": "Method of Test or Examination", "type": "Class Variable"}, "rootItem": {"href": "/mdr/root/sdtm/classes/Findings/variables/--METHOD", "title": "Version-agnostic anchor resource for SDTM variable Findings.--METHOD", "type": "Root Data Element"}, "self": {"href": "/mdr/sdtm/1-3/classes/Findings/variables/--METHOD", "title": "Method of Test or Examination", "type": "Class Variable"}}, "description": "Method of the test or examination. Examples: EIA (Enzyme Immunoassay), ELECTROPHORESIS, DIPSTICK.", "label": "Method of Test or Examination", "name": "--METHOD", "ordinal": "33", "role": "Record Qualifier", "roleDescription": "Record Qualifier", "simpleDatatype": "Char"}, {"_links": {"parentClass": {"href": "/mdr/sdtm/1-3/classes/Findings", "title": "Findings Observation Class", "type": "Class"}, "parentProduct": {"href": "/mdr/sdtm/1-3", "title": "Study Data Tabulation Model Version 1.3", "type": "Foundational Model"}, "rootItem": {"href": "/mdr/root/sdtm/classes/Findings/variables/--LEAD", "title": "Version-agnostic anchor resource for SDTM variable Findings.--LEAD", "type": "Root Data Element"}, "self": {"href": "/mdr/sdtm/1-3/classes/Findings/variables/--LEAD", "title": "Lead Identified to Collect Measurements", "type": "Class Variable"}}, "description": "Lead or leads identified to capture the measurement for a test from an instrument. Examples: LEAD I, LEAD V2, LEAD CM5.", "label": "Lead Identified to Collect Measurements", "name": "--LEAD", "ordinal": "34", "role": "Record Qualifier", "roleDescription": "Record Qualifier", "simpleDatatype": "Char"}, {"_links": {"parentClass": {"href": "/mdr/sdtm/1-3/classes/Findings", "title": "Findings Observation Class", "type": "Class"}, "parentProduct": {"href": "/mdr/sdtm/1-3", "title": "Study Data Tabulation Model Version 1.3", "type": "Foundational Model"}, "rootItem": {"href": "/mdr/root/sdtm/classes/Findings/variables/--CSTATE", "title": "Version-agnostic anchor resource for SDTM variable Findings.--CSTATE", "type": "Root Data Element"}, "self": {"href": "/mdr/sdtm/1-3/classes/Findings/variables/--CSTATE", "title": "Consciousness State", "type": "Class Variable"}}, "description": "The consciousness state of the subject at the time of measurement. Examples: CONSCIOUS, SEMI-CONSCIOUS, UNCONSCIOUS", "label": "Consciousness State", "name": "--CSTATE", "ordinal": "35", "role": "Record Qualifier", "roleDescription": "Record Qualifier", "simpleDatatype": "Char"}, {"_links": {"parentClass": {"href": "/mdr/sdtm/1-3/classes/Findings", "title": "Findings Observation Class", "type": "Class"}, "parentProduct": {"href": "/mdr/sdtm/1-3", "title": "Study Data Tabulation Model Version 1.3", "type": "Foundational Model"}, "priorVersion": {"href": "/mdr/sdtm/1-2/classes/Findings/variables/--BLFL", "title": "Baseline Flag", "type": "Class Variable"}, "rootItem": {"href": "/mdr/root/sdtm/classes/Findings/variables/--BLFL", "title": "Version-agnostic anchor resource for SDTM variable Findings.--BLFL", "type": "Root Data Element"}, "self": {"href": "/mdr/sdtm/1-3/classes/Findings/variables/--BLFL", "title": "Baseline Flag", "type": "Class Variable"}}, "description": "Indicator used to identify a baseline value. Should be Y or null.", "label": "Baseline Flag", "name": "--BLFL", "ordinal": "36", "role": "Record Qualifier", "roleDescription": "Record Qualifier", "simpleDatatype": "Char"}, {"_links": {"parentClass": {"href": "/mdr/sdtm/1-3/classes/Findings", "title": "Findings Observation Class", "type": "Class"}, "parentProduct": {"href": "/mdr/sdtm/1-3", "title": "Study Data Tabulation Model Version 1.3", "type": "Foundational Model"}, "priorVersion": {"href": "/mdr/sdtm/1-2/classes/Findings/variables/--FAST", "title": "Fasting Status", "type": "Class Variable"}, "rootItem": {"href": "/mdr/root/sdtm/classes/Findings/variables/--FAST", "title": "Version-agnostic anchor resource for SDTM variable Findings.--FAST", "type": "Root Data Element"}, "self": {"href": "/mdr/sdtm/1-3/classes/Findings/variables/--FAST", "title": "Fasting Status", "type": "Class Variable"}}, "description": "Indicator used to identify fasting status. Valid values include Y, N, U or null if not relevant.", "label": "Fasting Status", "name": "--FAST", "ordinal": "37", "role": "Record Qualifier", "roleDescription": "Record Qualifier", "simpleDatatype": "Char"}, {"_links": {"parentClass": {"href": "/mdr/sdtm/1-3/classes/Findings", "title": "Findings Observation Class", "type": "Class"}, "parentProduct": {"href": "/mdr/sdtm/1-3", "title": "Study Data Tabulation Model Version 1.3", "type": "Foundational Model"}, "priorVersion": {"href": "/mdr/sdtm/1-2/classes/Findings/variables/--DRVFL", "title": "Derived Flag", "type": "Class Variable"}, "rootItem": {"href": "/mdr/root/sdtm/classes/Findings/variables/--DRVFL", "title": "Version-agnostic anchor resource for SDTM variable Findings.--DRVFL", "type": "Root Data Element"}, "self": {"href": "/mdr/sdtm/1-3/classes/Findings/variables/--DRVFL", "title": "Derived Flag", "type": "Class Variable"}}, "description": "Used to indicate a derived record (e.g., a record that represents the average of other records such as a computed baseline). Should be Y or null.", "label": "Derived Flag", "name": "--DRVFL", "ordinal": "38", "role": "Record Qualifier", "roleDescription": "Record Qualifier", "simpleDatatype": "Char"}, {"_links": {"parentClass": {"href": "/mdr/sdtm/1-3/classes/Findings", "title": "Findings Observation Class", "type": "Class"}, "parentProduct": {"href": "/mdr/sdtm/1-3", "title": "Study Data Tabulation Model Version 1.3", "type": "Foundational Model"}, "priorVersion": {"href": "/mdr/sdtm/1-2/classes/Findings/variables/--EVAL", "title": "Evaluator", "type": "Class Variable"}, "rootItem": {"href": "/mdr/root/sdtm/classes/Findings/variables/--EVAL", "title": "Version-agnostic anchor resource for SDTM variable Findings.--EVAL", "type": "Root Data Element"}, "self": {"href": "/mdr/sdtm/1-3/classes/Findings/variables/--EVAL", "title": "Evaluator", "type": "Class Variable"}}, "description": "Role of the person who provided the evaluation. Used only for results that are subjective (e.g., assigned by a person or a group). Examples: ADJUDICATION COMMITTEE, INDEPENDENT ASSESSOR, RADIOLOGIST.", "label": "Evaluator", "name": "--EVAL", "ordinal": "39", "role": "Record Qualifier", "roleDescription": "Record Qualifier", "simpleDatatype": "Char"}, {"_links": {"parentClass": {"href": "/mdr/sdtm/1-3/classes/Findings", "title": "Findings Observation Class", "type": "Class"}, "parentProduct": {"href": "/mdr/sdtm/1-3", "title": "Study Data Tabulation Model Version 1.3", "type": "Foundational Model"}, "qualifiesVariables": [{"href": "/mdr/sdtm/1-3/classes/Findings/variables/--EVAL", "title": "Evaluator", "type": "Class Variable"}], "rootItem": {"href": "/mdr/root/sdtm/classes/Findings/variables/--EVALID", "title": "Version-agnostic anchor resource for SDTM variable Findings.--EVALID", "type": "Root Data Element"}, "self": {"href": "/mdr/sdtm/1-3/classes/Findings/variables/--EVALID", "title": "Evaluator Identifier", "type": "Class Variable"}}, "description": "Used to distinguish multiple evaluators with the same role recorded in --EVAL. Examples: RADIOLOGIST1 or RADIOLOGIST2", "label": "Evaluator Identifier", "name": "--EVALID", "ordinal": "40", "role": "Variable Qualifier", "roleDescription": "Variable Qualifier of --EVAL", "simpleDatatype": "Char"}, {"_links": {"parentClass": {"href": "/mdr/sdtm/1-3/classes/Findings", "title": "Findings Observation Class", "type": "Class"}, "parentProduct": {"href": "/mdr/sdtm/1-3", "title": "Study Data Tabulation Model Version 1.3", "type": "Foundational Model"}, "rootItem": {"href": "/mdr/root/sdtm/classes/Findings/variables/--ACPTFL", "title": "Version-agnostic anchor resource for SDTM variable Findings.--ACPTFL", "type": "Root Data Element"}, "self": {"href": "/mdr/sdtm/1-3/classes/Findings/variables/--ACPTFL", "title": "Accepted Record Flag", "type": "Class Variable"}}, "description": "In cases where more than one assessor provides an evaluation of a result or response, this flag identifies the record that is considered, by an independent assessor, to be the accepted evaluation. Expected to be Y or null.", "label": "Accepted Record Flag", "name": "--ACPTFL", "ordinal": "41", "role": "Record Qualifier", "roleDescription": "Record Qualifier", "simpleDatatype": "Char"}, {"_links": {"parentClass": {"href": "/mdr/sdtm/1-3/classes/Findings", "title": "Findings Observation Class", "type": "Class"}, "parentProduct": {"href": "/mdr/sdtm/1-3", "title": "Study Data Tabulation Model Version 1.3", "type": "Foundational Model"}, "priorVersion": {"href": "/mdr/sdtm/1-2/classes/Findings/variables/--TOX", "title": "Toxicity", "type": "Class Variable"}, "qualifiesVariables": [{"href": "/mdr/sdtm/1-3/classes/Findings/variables/--TOXGR", "title": "Toxicity Grade", "type": "Class Variable"}], "rootItem": {"href": "/mdr/root/sdtm/classes/Findings/variables/--TOX", "title": "Version-agnostic anchor resource for SDTM variable Findings.--TOX", "type": "Root Data Element"}, "self": {"href": "/mdr/sdtm/1-3/classes/Findings/variables/--TOX", "title": "Toxicity", "type": "Class Variable"}}, "description": "Description of toxicity quantified by --TOXGR such as NCI CTCAE Short Name. Examples: HYPERCALCEMIA, HYPOCALCEMIA. Sponsor should specify which scale and version is used in the Sponsor Comments column of the Define.xml document.", "label": "Toxicity", "name": "--TOX", "ordinal": "42", "role": "Variable Qualifier", "roleDescription": "Variable Qualifier of --TOXGR", "simpleDatatype": "Char"}, {"_links": {"parentClass": {"href": "/mdr/sdtm/1-3/classes/Findings", "title": "Findings Observation Class", "type": "Class"}, "parentProduct": {"href": "/mdr/sdtm/1-3", "title": "Study Data Tabulation Model Version 1.3", "type": "Foundational Model"}, "priorVersion": {"href": "/mdr/sdtm/1-2/classes/Findings/variables/--TOXGR", "title": "Toxicity Grade", "type": "Class Variable"}, "rootItem": {"href": "/mdr/root/sdtm/classes/Findings/variables/--TOXGR", "title": "Version-agnostic anchor resource for SDTM variable Findings.--TOXGR", "type": "Root Data Element"}, "self": {"href": "/mdr/sdtm/1-3/classes/Findings/variables/--TOXGR", "title": "Toxicity Grade", "type": "Class Variable"}}, "description": "Records toxicity grade using a standard toxicity scale (such as the NCI CTCAE). Sponsor should specify which scale and version is used in the Sponsor Comments column of the Define data definition document. Example: 2.", "label": "Toxicity Grade", "name": "--TOXGR", "ordinal": "43", "role": "Record Qualifier", "roleDescription": "Record Qualifier", "simpleDatatype": "Char"}, {"_links": {"parentClass": {"href": "/mdr/sdtm/1-3/classes/Findings", "title": "Findings Observation Class", "type": "Class"}, "parentProduct": {"href": "/mdr/sdtm/1-3", "title": "Study Data Tabulation Model Version 1.3", "type": "Foundational Model"}, "priorVersion": {"href": "/mdr/sdtm/1-2/classes/Findings/variables/--SEV", "title": "Severity", "type": "Class Variable"}, "rootItem": {"href": "/mdr/root/sdtm/classes/Findings/variables/--SEV", "title": "Version-agnostic anchor resource for SDTM variable Findings.--SEV", "type": "Root Data Element"}, "self": {"href": "/mdr/sdtm/1-3/classes/Findings/variables/--SEV", "title": "Severity", "type": "Class Variable"}}, "description": "Describes the severity or intensity of a particular finding. Examples: MILD, MODERATE, SEVERE.", "label": "Severity", "name": "--SEV", "ordinal": "44", "role": "Record Qualifier", "roleDescription": "Record Qualifier", "simpleDatatype": "Char"}, {"_links": {"parentClass": {"href": "/mdr/sdtm/1-3/classes/Findings", "title": "Findings Observation Class", "type": "Class"}, "parentProduct": {"href": "/mdr/sdtm/1-3", "title": "Study Data Tabulation Model Version 1.3", "type": "Foundational Model"}, "priorVersion": {"href": "/mdr/sdtm/1-2/classes/Findings/variables/--DTHREL", "title": "Relationship to Death", "type": "Class Variable"}, "rootItem": {"href": "/mdr/root/sdtm/classes/Findings/variables/--DTHREL", "title": "Version-agnostic anchor resource for SDTM variable Findings.--DTHREL", "type": "Root Data Element"}, "self": {"href": "/mdr/sdtm/1-3/classes/Findings/variables/--DTHREL", "title": "Relationship to Death", "type": "Class Variable"}}, "description": "Describes the relationship of a particular finding to the death of a subject.", "label": "Relationship to Death", "name": "--DTHREL", "ordinal": "45", "role": "Record Qualifier", "roleDescription": "Record Qualifier", "simpleDatatype": "Char"}, {"_links": {"parentClass": {"href": "/mdr/sdtm/1-3/classes/Findings", "title": "Findings Observation Class", "type": "Class"}, "parentProduct": {"href": "/mdr/sdtm/1-3", "title": "Study Data Tabulation Model Version 1.3", "type": "Foundational Model"}, "priorVersion": {"href": "/mdr/sdtm/1-2/classes/Findings/variables/--LLOQ", "title": "Lower Limit of Quantitation", "type": "Class Variable"}, "qualifiesVariables": [{"href": "/mdr/sdtm/1-3/classes/Findings/variables/--STRESN", "title": "Numeric Result/Finding in Standard Units", "type": "Class Variable"}, {"href": "/mdr/sdtm/1-3/classes/Findings/variables/--STRESC", "title": "Result or Finding in Standard Format", "type": "Class Variable"}], "rootItem": {"href": "/mdr/root/sdtm/classes/Findings/variables/--LLOQ", "title": "Version-agnostic anchor resource for SDTM variable Findings.--LLOQ", "type": "Root Data Element"}, "self": {"href": "/mdr/sdtm/1-3/classes/Findings/variables/--LLOQ", "title": "Lower Limit of Quantitation", "type": "Class Variable"}}, "description": "Indicates the lower limit of quantitation for an assay. Units will be those used for --STRESU.", "label": "Lower Limit of Quantitation", "name": "--LLOQ", "ordinal": "46", "role": "Variable Qualifier", "roleDescription": "Variable Qualifier of --STRESC and  --STRESN", "simpleDatatype": "Num"}, {"_links": {"parentClass": {"href": "/mdr/sdtm/1-3/classes/Findings", "title": "Findings Observation Class", "type": "Class"}, "parentProduct": {"href": "/mdr/sdtm/1-3", "title": "Study Data Tabulation Model Version 1.3", "type": "Foundational Model"}, "rootItem": {"href": "/mdr/root/sdtm/classes/Findings/variables/--EXCLFL", "title": "Version-agnostic anchor resource for SDTM variable Findings.--EXCLFL", "type": "Root Data Element"}, "self": {"href": "/mdr/sdtm/1-3/classes/Findings/variables/--EXCLFL", "title": "Exclude from Statistics", "type": "Class Variable"}}, "description": "Indicates whether the values in the result variables for this record should be excluded from summary statistical calculations such as Mean, Standard Deviation, and Count (and others). Expected to be Y or null. --EXCLFL should not be used when --STAT is NOT DONE. Not to be used with human clinical trials.", "label": "Exclude from Statistics", "name": "--EXCLFL", "ordinal": "47", "role": "Record Qualifier", "roleDescription": "Record Qualifier", "simpleDatatype": "Char"}, {"_links": {"parentClass": {"href": "/mdr/sdtm/1-3/classes/Findings", "title": "Findings Observation Class", "type": "Class"}, "parentProduct": {"href": "/mdr/sdtm/1-3", "title": "Study Data Tabulation Model Version 1.3", "type": "Foundational Model"}, "rootItem": {"href": "/mdr/root/sdtm/classes/Findings/variables/--REASEX", "title": "Version-agnostic anchor resource for SDTM variable Findings.--REASEX", "type": "Root Data Element"}, "self": {"href": "/mdr/sdtm/1-3/classes/Findings/variables/--REASEX", "title": "Reason for Exclusion from Statistics", "type": "Class Variable"}}, "description": "Reason excluded from statistics. Used in conjunction with --EXCLFL when its value is Y. Not to be used with human clinical trials.", "label": "Reason for Exclusion from Statistics", "name": "--REASEX", "ordinal": "48", "role": "Record Qualifier", "roleDescription": "Record Qualifier", "simpleDatatype": "Char"}], "description": "This SDTM class captures the observations resulting from planned evaluations to address specific tests or questions such as laboratory tests, ECG testing, and questions listed on questionnaires. (Source: CDISC Controlled Terminology, GNRLOBSC, C103373, 2018-06-29)", "label": "Findings Observation Class", "name": "Findings", "ordinal": "4"}, {"_links": {"parentClass": {"href": "/mdr/sdtm/1-3/classes/Findings", "title": "Findings Observation Class", "type": "Class"}, "parentProduct": {"href": "/mdr/sdtm/1-3", "title": "Study Data Tabulation Model Version 1.3", "type": "Foundational Model"}, "priorVersion": {"href": "/mdr/sdtm/1-2/classes/FindingsAbout", "title": "Findings About Events or Interventions", "type": "Class"}, "self": {"href": "/mdr/sdtm/1-3/classes/FindingsAbout", "title": "Findings About Events or Interventions", "type": "Class"}}, "classVariables": [{"_links": {"parentClass": {"href": "/mdr/sdtm/1-3/classes/FindingsAbout", "title": "Findings About Events or Interventions", "type": "Class"}, "parentProduct": {"href": "/mdr/sdtm/1-3", "title": "Study Data Tabulation Model Version 1.3", "type": "Foundational Model"}, "priorVersion": {"href": "/mdr/sdtm/1-2/classes/FindingsAbout/variables/--OBJ", "title": "Object of the Observation", "type": "Class Variable"}, "rootItem": {"href": "/mdr/root/sdtm/classes/FindingsAbout/variables/--OBJ", "title": "Version-agnostic anchor resource for SDTM variable FindingsAbout.--OBJ", "type": "Root Data Element"}, "self": {"href": "/mdr/sdtm/1-3/classes/FindingsAbout/variables/--OBJ", "title": "Object of the Observation", "type": "Class Variable"}}, "description": "Used in domains modeled as Findings About Events or Findings About Interventions. Describes the event or intervention whose property is being measured in --TESTCD/--TEST. Example: an event of vomiting which has findings, where --OBJ = \"VOMIT\" and the volume of VOMIT is being measured where --TESTCD = \"VOLUME\".", "label": "Object of the Observation", "name": "--OBJ", "ordinal": "1", "role": "Record Qualifier", "roleDescription": "Record Qualifier", "simpleDatatype": "Char"}], "description": "This SDTM class is a specialization of the findings general observation class. It is intended, as its name implies, to be used when collected data represent findings about an event or intervention that cannot be represented within an event or intervention record or as a supplemental qualifier to such a record. (Source: CDISC Controlled Terminology, GNRLOBSC, C135396, 2018-06-29)", "label": "Findings About Events or Interventions", "name": "Findings About", "ordinal": "5"}, {"_links": {"parentProduct": {"href": "/mdr/sdtm/1-3", "title": "Study Data Tabulation Model Version 1.3", "type": "Foundational Model"}, "priorVersion": {"href": "/mdr/sdtm/1-2/classes/SpecialPurpose", "title": "Special-Purpose Datasets", "type": "Class"}, "self": {"href": "/mdr/sdtm/1-3/classes/SpecialPurpose", "title": "Special-Purpose Datasets", "type": "Class"}}, "datasets": [{"_links": {"parentClass": {"href": "/mdr/sdtm/1-3/classes/SpecialPurpose", "title": "Special-Purpose Datasets", "type": "Class"}, "parentProduct": {"href": "/mdr/sdtm/1-3", "title": "Study Data Tabulation Model Version 1.3", "type": "Foundational Model"}, "priorVersion": {"href": "/mdr/sdtm/1-2/datasets/DM", "title": "Subject Demographics", "type": "SDTM Dataset"}, "self": {"href": "/mdr/sdtm/1-3/datasets/DM", "title": "Subject Demographics", "type": "SDTM Dataset"}}, "datasetVariables": [{"_links": {"parentDataset": {"href": "/mdr/sdtm/1-3/datasets/DM", "title": "Subject Demographics", "type": "SDTM Dataset"}, "parentProduct": {"href": "/mdr/sdtm/1-3", "title": "Study Data Tabulation Model Version 1.3", "type": "Foundational Model"}, "priorVersion": {"href": "/mdr/sdtm/1-2/datasets/DM/variables/STUDYID", "title": "Study Identifier", "type": "SDTM Dataset Variable"}, "rootItem": {"href": "/mdr/root/sdtm/datasets/DM/variables/STUDYID", "title": "Version-agnostic anchor resource for SDTM variable DM.STUDYID", "type": "Root Data Element"}, "self": {"href": "/mdr/sdtm/1-3/datasets/DM/variables/STUDYID", "title": "Study Identifier", "type": "SDTM Dataset Variable"}}, "description": "Unique identifier for a study.", "label": "Study Identifier", "name": "STUDYID", "ordinal": "1", "role": "Identifier", "roleDescription": "Identifier", "simpleDatatype": "Char"}, {"_links": {"parentDataset": {"href": "/mdr/sdtm/1-3/datasets/DM", "title": "Subject Demographics", "type": "SDTM Dataset"}, "parentProduct": {"href": "/mdr/sdtm/1-3", "title": "Study Data Tabulation Model Version 1.3", "type": "Foundational Model"}, "priorVersion": {"href": "/mdr/sdtm/1-2/datasets/DM/variables/DOMAIN", "title": "Domain Abbreviation", "type": "SDTM Dataset Variable"}, "rootItem": {"href": "/mdr/root/sdtm/datasets/DM/variables/DOMAIN", "title": "Version-agnostic anchor resource for SDTM variable DM.DOMAIN", "type": "Root Data Element"}, "self": {"href": "/mdr/sdtm/1-3/datasets/DM/variables/DOMAIN", "title": "Domain Abbreviation", "type": "SDTM Dataset Variable"}}, "description": "Two-character abbreviation for the domain which must be DM.", "label": "Domain Abbreviation", "name": "DOMAIN", "ordinal": "2", "role": "Identifier", "roleDescription": "Identifier", "simpleDatatype": "Char"}, {"_links": {"parentDataset": {"href": "/mdr/sdtm/1-3/datasets/DM", "title": "Subject Demographics", "type": "SDTM Dataset"}, "parentProduct": {"href": "/mdr/sdtm/1-3", "title": "Study Data Tabulation Model Version 1.3", "type": "Foundational Model"}, "priorVersion": {"href": "/mdr/sdtm/1-2/datasets/DM/variables/USUBJID", "title": "Unique Subject Identifier", "type": "SDTM Dataset Variable"}, "rootItem": {"href": "/mdr/root/sdtm/datasets/DM/variables/USUBJID", "title": "Version-agnostic anchor resource for SDTM variable DM.USUBJID", "type": "Root Data Element"}, "self": {"href": "/mdr/sdtm/1-3/datasets/DM/variables/USUBJID", "title": "Unique Subject Identifier", "type": "SDTM Dataset Variable"}}, "description": "Identifier used to uniquely identify a subject across all studies for all applications or submissions involving the product.", "label": "Unique Subject Identifier", "name": "USUBJID", "ordinal": "3", "role": "Identifier", "roleDescription": "Identifier", "simpleDatatype": "Char"}, {"_links": {"parentDataset": {"href": "/mdr/sdtm/1-3/datasets/DM", "title": "Subject Demographics", "type": "SDTM Dataset"}, "parentProduct": {"href": "/mdr/sdtm/1-3", "title": "Study Data Tabulation Model Version 1.3", "type": "Foundational Model"}, "priorVersion": {"href": "/mdr/sdtm/1-2/datasets/DM/variables/SUBJID", "title": "Subject Identifier for the Study", "type": "SDTM Dataset Variable"}, "rootItem": {"href": "/mdr/root/sdtm/datasets/DM/variables/SUBJID", "title": "Version-agnostic anchor resource for SDTM variable DM.SUBJID", "type": "Root Data Element"}, "self": {"href": "/mdr/sdtm/1-3/datasets/DM/variables/SUBJID", "title": "Subject Identifier for the Study", "type": "SDTM Dataset Variable"}}, "description": "Subject identifier, which must be unique within the study. Often the ID of the subject as recorded on a CRF.", "label": "Subject Identifier for the Study", "name": "SUBJID", "ordinal": "4", "role": "Topic", "roleDescription": "Topic", "simpleDatatype": "Char"}, {"_links": {"parentDataset": {"href": "/mdr/sdtm/1-3/datasets/DM", "title": "Subject Demographics", "type": "SDTM Dataset"}, "parentProduct": {"href": "/mdr/sdtm/1-3", "title": "Study Data Tabulation Model Version 1.3", "type": "Foundational Model"}, "priorVersion": {"href": "/mdr/sdtm/1-2/datasets/DM/variables/RFSTDTC", "title": "Subject Reference Start Date/Time", "type": "SDTM Dataset Variable"}, "rootItem": {"href": "/mdr/root/sdtm/datasets/DM/variables/RFSTDTC", "title": "Version-agnostic anchor resource for SDTM variable DM.RFSTDTC", "type": "Root Data Element"}, "self": {"href": "/mdr/sdtm/1-3/datasets/DM/variables/RFSTDTC", "title": "Subject Reference Start Date/Time", "type": "SDTM Dataset Variable"}}, "description": "Reference Start Date/time for the subject in ISO 8601 character format. Usually equivalent to date/time when subject was first exposed to study treatment. Required for all randomized subjects; will be null for all subjects who did not meet the milestone the date requires, such as screen failures or unassigned subjects.", "label": "Subject Reference Start Date/Time", "name": "RFSTDTC", "ordinal": "5", "role": "Qualifier", "roleDescription": "Qualifier", "simpleDatatype": "Char"}, {"_links": {"parentDataset": {"href": "/mdr/sdtm/1-3/datasets/DM", "title": "Subject Demographics", "type": "SDTM Dataset"}, "parentProduct": {"href": "/mdr/sdtm/1-3", "title": "Study Data Tabulation Model Version 1.3", "type": "Foundational Model"}, "priorVersion": {"href": "/mdr/sdtm/1-2/datasets/DM/variables/RFENDTC", "title": "Subject Reference End Date/Time", "type": "SDTM Dataset Variable"}, "rootItem": {"href": "/mdr/root/sdtm/datasets/DM/variables/RFENDTC", "title": "Version-agnostic anchor resource for SDTM variable DM.RFENDTC", "type": "Root Data Element"}, "self": {"href": "/mdr/sdtm/1-3/datasets/DM/variables/RFENDTC", "title": "Subject Reference End Date/Time", "type": "SDTM Dataset Variable"}}, "description": "Reference End Date/time for the subject in ISO 8601 character format. Usually equivalent to the date/time when subject was determined to have ended the trial, and often equivalent to date/time of last exposure to study treatment. Required for all randomized subjects; null for screen failures or unassigned subjects.", "label": "Subject Reference End Date/Time", "name": "RFENDTC", "ordinal": "6", "role": "Qualifier", "roleDescription": "Qualifier", "simpleDatatype": "Char"}, {"_links": {"parentDataset": {"href": "/mdr/sdtm/1-3/datasets/DM", "title": "Subject Demographics", "type": "SDTM Dataset"}, "parentProduct": {"href": "/mdr/sdtm/1-3", "title": "Study Data Tabulation Model Version 1.3", "type": "Foundational Model"}, "rootItem": {"href": "/mdr/root/sdtm/datasets/DM/variables/RFXSTDTC", "title": "Version-agnostic anchor resource for SDTM variable DM.RFXSTDTC", "type": "Root Data Element"}, "self": {"href": "/mdr/sdtm/1-3/datasets/DM/variables/RFXSTDTC", "title": "Date/Time of First Study Treatment", "type": "SDTM Dataset Variable"}}, "description": "First date/time of exposure to any protocol-specified treatment or therapy for the subject in ISO 8601 character format.", "label": "Date/Time of First Study Treatment", "name": "RFXSTDTC", "ordinal": "7", "role": "Qualifier", "roleDescription": "Qualifier", "simpleDatatype": "Char"}, {"_links": {"parentDataset": {"href": "/mdr/sdtm/1-3/datasets/DM", "title": "Subject Demographics", "type": "SDTM Dataset"}, "parentProduct": {"href": "/mdr/sdtm/1-3", "title": "Study Data Tabulation Model Version 1.3", "type": "Foundational Model"}, "rootItem": {"href": "/mdr/root/sdtm/datasets/DM/variables/RFXENDTC", "title": "Version-agnostic anchor resource for SDTM variable DM.RFXENDTC", "type": "Root Data Element"}, "self": {"href": "/mdr/sdtm/1-3/datasets/DM/variables/RFXENDTC", "title": "Date/Time of Last Study Treatment", "type": "SDTM Dataset Variable"}}, "description": "Last date/time of exposure to any protocol-specified treatment or therapy for the subject in ISO 8601 character format.", "label": "Date/Time of Last Study Treatment", "name": "RFXENDTC", "ordinal": "8", "role": "Qualifier", "roleDescription": "Qualifier", "simpleDatatype": "Char"}, {"_links": {"parentDataset": {"href": "/mdr/sdtm/1-3/datasets/DM", "title": "Subject Demographics", "type": "SDTM Dataset"}, "parentProduct": {"href": "/mdr/sdtm/1-3", "title": "Study Data Tabulation Model Version 1.3", "type": "Foundational Model"}, "rootItem": {"href": "/mdr/root/sdtm/datasets/DM/variables/RFICDTC", "title": "Version-agnostic anchor resource for SDTM variable DM.RFICDTC", "type": "Root Data Element"}, "self": {"href": "/mdr/sdtm/1-3/datasets/DM/variables/RFICDTC", "title": "Date/Time of Informed Consent", "type": "SDTM Dataset Variable"}}, "description": "Date/time of informed consent in ISO 8601 character format.", "label": "Date/Time of Informed Consent", "name": "RFICDTC", "ordinal": "9", "role": "Qualifier", "roleDescription": "Qualifier", "simpleDatatype": "Char"}, {"_links": {"parentDataset": {"href": "/mdr/sdtm/1-3/datasets/DM", "title": "Subject Demographics", "type": "SDTM Dataset"}, "parentProduct": {"href": "/mdr/sdtm/1-3", "title": "Study Data Tabulation Model Version 1.3", "type": "Foundational Model"}, "rootItem": {"href": "/mdr/root/sdtm/datasets/DM/variables/RFPENDTC", "title": "Version-agnostic anchor resource for SDTM variable DM.RFPENDTC", "type": "Root Data Element"}, "self": {"href": "/mdr/sdtm/1-3/datasets/DM/variables/RFPENDTC", "title": "Date/Time of End of Participation", "type": "SDTM Dataset Variable"}}, "description": "Date/time when subject ended participation or follow-up in a trial, in ISO 8601 character format. Should correspond to the last known date of contact.", "label": "Date/Time of End of Participation", "name": "RFPENDTC", "ordinal": "10", "role": "Qualifier", "roleDescription": "Qualifier", "simpleDatatype": "Char"}, {"_links": {"parentDataset": {"href": "/mdr/sdtm/1-3/datasets/DM", "title": "Subject Demographics", "type": "SDTM Dataset"}, "parentProduct": {"href": "/mdr/sdtm/1-3", "title": "Study Data Tabulation Model Version 1.3", "type": "Foundational Model"}, "rootItem": {"href": "/mdr/root/sdtm/datasets/DM/variables/DTHDTC", "title": "Version-agnostic anchor resource for SDTM variable DM.DTHDTC", "type": "Root Data Element"}, "self": {"href": "/mdr/sdtm/1-3/datasets/DM/variables/DTHDTC", "title": "Date/Time of Death", "type": "SDTM Dataset Variable"}}, "description": "Date/time of death for any subject who died, in ISO 8601 format. Should represent the date/time that is captured in the clinical-trial database.", "label": "Date/Time of Death", "name": "DTHDTC", "ordinal": "11", "role": "Qualifier", "roleDescription": "Qualifier", "simpleDatatype": "Char"}, {"_links": {"parentDataset": {"href": "/mdr/sdtm/1-3/datasets/DM", "title": "Subject Demographics", "type": "SDTM Dataset"}, "parentProduct": {"href": "/mdr/sdtm/1-3", "title": "Study Data Tabulation Model Version 1.3", "type": "Foundational Model"}, "rootItem": {"href": "/mdr/root/sdtm/datasets/DM/variables/DTHFL", "title": "Version-agnostic anchor resource for SDTM variable DM.DTHFL", "type": "Root Data Element"}, "self": {"href": "/mdr/sdtm/1-3/datasets/DM/variables/DTHFL", "title": "Subject Death Flag", "type": "SDTM Dataset Variable"}}, "description": "A value of 'Y' indicates the subject died. Should be Y or null. Should be populated even when the death date is unknown.", "label": "Subject Death Flag", "name": "DTHFL", "ordinal": "12", "role": "Qualifier", "roleDescription": "Qualifier", "simpleDatatype": "Char"}, {"_links": {"parentDataset": {"href": "/mdr/sdtm/1-3/datasets/DM", "title": "Subject Demographics", "type": "SDTM Dataset"}, "parentProduct": {"href": "/mdr/sdtm/1-3", "title": "Study Data Tabulation Model Version 1.3", "type": "Foundational Model"}, "priorVersion": {"href": "/mdr/sdtm/1-2/datasets/DM/variables/SITEID", "title": "Study Site Identifier", "type": "SDTM Dataset Variable"}, "rootItem": {"href": "/mdr/root/sdtm/datasets/DM/variables/SITEID", "title": "Version-agnostic anchor resource for SDTM variable DM.SITEID", "type": "Root Data Element"}, "self": {"href": "/mdr/sdtm/1-3/datasets/DM/variables/SITEID", "title": "Study Site Identifier", "type": "SDTM Dataset Variable"}}, "description": "Unique identifier for a site within a study.", "label": "Study Site Identifier", "name": "SITEID", "ordinal": "13", "role": "Qualifier", "roleDescription": "Qualifier", "simpleDatatype": "Char"}, {"_links": {"parentDataset": {"href": "/mdr/sdtm/1-3/datasets/DM", "title": "Subject Demographics", "type": "SDTM Dataset"}, "parentProduct": {"href": "/mdr/sdtm/1-3", "title": "Study Data Tabulation Model Version 1.3", "type": "Foundational Model"}, "priorVersion": {"href": "/mdr/sdtm/1-2/datasets/DM/variables/INVID", "title": "Investigator Identifier", "type": "SDTM Dataset Variable"}, "rootItem": {"href": "/mdr/root/sdtm/datasets/DM/variables/INVID", "title": "Version-agnostic anchor resource for SDTM variable DM.INVID", "type": "Root Data Element"}, "self": {"href": "/mdr/sdtm/1-3/datasets/DM/variables/INVID", "title": "Investigator Identifier", "type": "SDTM Dataset Variable"}}, "description": "An identifier to describe the Investigator for the study. May be used in addition to the SITEID. Not needed if SITEID is equivalent to INVID.", "label": "Investigator Identifier", "name": "INVID", "ordinal": "14", "role": "Qualifier", "roleDescription": "Qualifier", "simpleDatatype": "Char"}, {"_links": {"parentDataset": {"href": "/mdr/sdtm/1-3/datasets/DM", "title": "Subject Demographics", "type": "SDTM Dataset"}, "parentProduct": {"href": "/mdr/sdtm/1-3", "title": "Study Data Tabulation Model Version 1.3", "type": "Foundational Model"}, "priorVersion": {"href": "/mdr/sdtm/1-2/datasets/DM/variables/INVNAM", "title": "Investigator Name", "type": "SDTM Dataset Variable"}, "rootItem": {"href": "/mdr/root/sdtm/datasets/DM/variables/INVNAM", "title": "Version-agnostic anchor resource for SDTM variable DM.INVNAM", "type": "Root Data Element"}, "self": {"href": "/mdr/sdtm/1-3/datasets/DM/variables/INVNAM", "title": "Investigator Name", "type": "SDTM Dataset Variable"}}, "description": "Unique identifier for a site within a study.", "label": "Investigator Name", "name": "INVNAM", "ordinal": "15", "role": "Qualifier", "roleDescription": "Qualifier", "simpleDatatype": "Char"}, {"_links": {"parentDataset": {"href": "/mdr/sdtm/1-3/datasets/DM", "title": "Subject Demographics", "type": "SDTM Dataset"}, "parentProduct": {"href": "/mdr/sdtm/1-3", "title": "Study Data Tabulation Model Version 1.3", "type": "Foundational Model"}, "priorVersion": {"href": "/mdr/sdtm/1-2/datasets/DM/variables/BRTHDTC", "title": "Date/Time of Birth", "type": "SDTM Dataset Variable"}, "rootItem": {"href": "/mdr/root/sdtm/datasets/DM/variables/BRTHDTC", "title": "Version-agnostic anchor resource for SDTM variable DM.BRTHDTC", "type": "Root Data Element"}, "self": {"href": "/mdr/sdtm/1-3/datasets/DM/variables/BRTHDTC", "title": "Date/Time of Birth", "type": "SDTM Dataset Variable"}}, "description": "Date/time of birth of the subject in ISO 8601 character format.", "label": "Date/Time of Birth", "name": "BRTHDTC", "ordinal": "16", "role": "Qualifier", "roleDescription": "Qualifier", "simpleDatatype": "Char"}, {"_links": {"parentDataset": {"href": "/mdr/sdtm/1-3/datasets/DM", "title": "Subject Demographics", "type": "SDTM Dataset"}, "parentProduct": {"href": "/mdr/sdtm/1-3", "title": "Study Data Tabulation Model Version 1.3", "type": "Foundational Model"}, "priorVersion": {"href": "/mdr/sdtm/1-2/datasets/DM/variables/AGE", "title": "Age", "type": "SDTM Dataset Variable"}, "rootItem": {"href": "/mdr/root/sdtm/datasets/DM/variables/AGE", "title": "Version-agnostic anchor resource for SDTM variable DM.AGE", "type": "Root Data Element"}, "self": {"href": "/mdr/sdtm/1-3/datasets/DM/variables/AGE", "title": "Age", "type": "SDTM Dataset Variable"}}, "description": "Age expressed in AGEU. May be derived as (RFSTDTC-BRTHDTC), but BRTHDTC may not be available in all cases (due to subject privacy concerns).", "label": "Age", "name": "AGE", "ordinal": "17", "role": "Qualifier", "roleDescription": "Qualifier", "simpleDatatype": "Num"}, {"_links": {"parentDataset": {"href": "/mdr/sdtm/1-3/datasets/DM", "title": "Subject Demographics", "type": "SDTM Dataset"}, "parentProduct": {"href": "/mdr/sdtm/1-3", "title": "Study Data Tabulation Model Version 1.3", "type": "Foundational Model"}, "rootItem": {"href": "/mdr/root/sdtm/datasets/DM/variables/AGETXT", "title": "Version-agnostic anchor resource for SDTM variable DM.AGETXT", "type": "Root Data Element"}, "self": {"href": "/mdr/sdtm/1-3/datasets/DM/variables/AGETXT", "title": "Age Text", "type": "SDTM Dataset Variable"}}, "description": "The age of the subject at study start, as planned, expressed as a range. If an age integer value is available, then populate the age variable instead. Either the AGE or AGETXT variable should be populated, but not both.", "label": "Age Text", "name": "AGETXT", "ordinal": "18", "role": "Qualifier", "roleDescription": "Qualifier", "simpleDatatype": "Char"}, {"_links": {"parentDataset": {"href": "/mdr/sdtm/1-3/datasets/DM", "title": "Subject Demographics", "type": "SDTM Dataset"}, "parentProduct": {"href": "/mdr/sdtm/1-3", "title": "Study Data Tabulation Model Version 1.3", "type": "Foundational Model"}, "priorVersion": {"href": "/mdr/sdtm/1-2/datasets/DM/variables/AGEU", "title": "Age Units", "type": "SDTM Dataset Variable"}, "rootItem": {"href": "/mdr/root/sdtm/datasets/DM/variables/AGEU", "title": "Version-agnostic anchor resource for SDTM variable DM.AGEU", "type": "Root Data Element"}, "self": {"href": "/mdr/sdtm/1-3/datasets/DM/variables/AGEU", "title": "Age Units", "type": "SDTM Dataset Variable"}}, "description": "Units associated with AGE or AGETXT.", "label": "Age Units", "name": "AGEU", "ordinal": "19", "role": "Qualifier", "roleDescription": "Qualifier", "simpleDatatype": "Char"}, {"_links": {"parentDataset": {"href": "/mdr/sdtm/1-3/datasets/DM", "title": "Subject Demographics", "type": "SDTM Dataset"}, "parentProduct": {"href": "/mdr/sdtm/1-3", "title": "Study Data Tabulation Model Version 1.3", "type": "Foundational Model"}, "priorVersion": {"href": "/mdr/sdtm/1-2/datasets/DM/variables/SEX", "title": "Sex", "type": "SDTM Dataset Variable"}, "rootItem": {"href": "/mdr/root/sdtm/datasets/DM/variables/SEX", "title": "Version-agnostic anchor resource for SDTM variable DM.SEX", "type": "Root Data Element"}, "self": {"href": "/mdr/sdtm/1-3/datasets/DM/variables/SEX", "title": "Sex", "type": "SDTM Dataset Variable"}}, "description": "Sex of the subject.", "label": "Sex", "name": "SEX", "ordinal": "20", "role": "Qualifier", "roleDescription": "Qualifier", "simpleDatatype": "Char"}, {"_links": {"parentDataset": {"href": "/mdr/sdtm/1-3/datasets/DM", "title": "Subject Demographics", "type": "SDTM Dataset"}, "parentProduct": {"href": "/mdr/sdtm/1-3", "title": "Study Data Tabulation Model Version 1.3", "type": "Foundational Model"}, "priorVersion": {"href": "/mdr/sdtm/1-2/datasets/DM/variables/RACE", "title": "Race", "type": "SDTM Dataset Variable"}, "rootItem": {"href": "/mdr/root/sdtm/datasets/DM/variables/RACE", "title": "Version-agnostic anchor resource for SDTM variable DM.RACE", "type": "Root Data Element"}, "self": {"href": "/mdr/sdtm/1-3/datasets/DM/variables/RACE", "title": "Race", "type": "SDTM Dataset Variable"}}, "description": "Race of the subject. Sponsors should refer to \"Collection of Race and Ethnicity Data in Clinical Trials\" (FDA, September 2005) for guidance regarding the collection of race (http://www.fda.gov/downloads/RegulatoryInformation/Guidances/ucm12639 6.pdf)", "label": "Race", "name": "RACE", "ordinal": "21", "role": "Qualifier", "roleDescription": "Qualifier", "simpleDatatype": "Char"}, {"_links": {"parentDataset": {"href": "/mdr/sdtm/1-3/datasets/DM", "title": "Subject Demographics", "type": "SDTM Dataset"}, "parentProduct": {"href": "/mdr/sdtm/1-3", "title": "Study Data Tabulation Model Version 1.3", "type": "Foundational Model"}, "priorVersion": {"href": "/mdr/sdtm/1-2/datasets/DM/variables/ETHNIC", "title": "Ethnicity", "type": "SDTM Dataset Variable"}, "rootItem": {"href": "/mdr/root/sdtm/datasets/DM/variables/ETHNIC", "title": "Version-agnostic anchor resource for SDTM variable DM.ETHNIC", "type": "Root Data Element"}, "self": {"href": "/mdr/sdtm/1-3/datasets/DM/variables/ETHNIC", "title": "Ethnicity", "type": "SDTM Dataset Variable"}}, "description": "The ethnicity of the subject. Sponsors should refer to \"Collection of Race and Ethnicity Data in Clinical Trials\" (FDA, September 2005) for guidance regarding the collection of ethnicity (http://www.fda.gov/downloads/RegulatoryInformation/Guidances/ucm12639 6.pdf)", "label": "Ethnicity", "name": "ETHNIC", "ordinal": "22", "role": "Qualifier", "roleDescription": "Qualifier", "simpleDatatype": "Char"}, {"_links": {"parentDataset": {"href": "/mdr/sdtm/1-3/datasets/DM", "title": "Subject Demographics", "type": "SDTM Dataset"}, "parentProduct": {"href": "/mdr/sdtm/1-3", "title": "Study Data Tabulation Model Version 1.3", "type": "Foundational Model"}, "rootItem": {"href": "/mdr/root/sdtm/datasets/DM/variables/SPECIES", "title": "Version-agnostic anchor resource for SDTM variable DM.SPECIES", "type": "Root Data Element"}, "self": {"href": "/mdr/sdtm/1-3/datasets/DM/variables/SPECIES", "title": "Species", "type": "SDTM Dataset Variable"}}, "description": "Used to identify the common species name of the subject (i.e., test system) under study (e.g., MOUSE, RAT, DOG, MONKEY).", "label": "Species", "name": "SPECIES", "ordinal": "23", "role": "Qualifier", "roleDescription": "Qualifier", "simpleDatatype": "Char"}, {"_links": {"parentDataset": {"href": "/mdr/sdtm/1-3/datasets/DM", "title": "Subject Demographics", "type": "SDTM Dataset"}, "parentProduct": {"href": "/mdr/sdtm/1-3", "title": "Study Data Tabulation Model Version 1.3", "type": "Foundational Model"}, "rootItem": {"href": "/mdr/root/sdtm/datasets/DM/variables/STRAIN", "title": "Version-agnostic anchor resource for SDTM variable DM.STRAIN", "type": "Root Data Element"}, "self": {"href": "/mdr/sdtm/1-3/datasets/DM/variables/STRAIN", "title": "Strain/Substrain", "type": "SDTM Dataset Variable"}}, "description": "Used to identify the vendor-supplied strain/substrain designation for the subject (i.e., test system) under study. When applicable, it combines the root strain, substrain, and associated genetic modifications, as supplied by the vendor (e.g., C57BL/6, A/J, B6.129-Pparg<tm2Rev>/J, FISCHER 344, SPRAGUE DAWLEY IGS, WISTAR Kyoto, BEAGLE, CYNOMOLGUS, CHIMPANZEE).", "label": "Strain/Substrain", "name": "STRAIN", "ordinal": "24", "role": "Qualifier", "roleDescription": "Qualifier", "simpleDatatype": "Char"}, {"_links": {"parentDataset": {"href": "/mdr/sdtm/1-3/datasets/DM", "title": "Subject Demographics", "type": "SDTM Dataset"}, "parentProduct": {"href": "/mdr/sdtm/1-3", "title": "Study Data Tabulation Model Version 1.3", "type": "Foundational Model"}, "rootItem": {"href": "/mdr/root/sdtm/datasets/DM/variables/SBSTRAIN", "title": "Version-agnostic anchor resource for SDTM variable DM.SBSTRAIN", "type": "Root Data Element"}, "self": {"href": "/mdr/sdtm/1-3/datasets/DM/variables/SBSTRAIN", "title": "Strain/Substrain Details", "type": "SDTM Dataset Variable"}}, "description": "Free-text field that allows the sponsor to enter additional details regarding the subject (i.e. test system) under study, such as a description of a specific genetic alteration.", "label": "Strain/Substrain Details", "name": "SBSTRAIN", "ordinal": "25", "role": "Qualifier", "roleDescription": "Qualifier", "simpleDatatype": "Char"}, {"_links": {"parentDataset": {"href": "/mdr/sdtm/1-3/datasets/DM", "title": "Subject Demographics", "type": "SDTM Dataset"}, "parentProduct": {"href": "/mdr/sdtm/1-3", "title": "Study Data Tabulation Model Version 1.3", "type": "Foundational Model"}, "priorVersion": {"href": "/mdr/sdtm/1-2/datasets/DM/variables/ARMCD", "title": "Planned Arm Code", "type": "SDTM Dataset Variable"}, "rootItem": {"href": "/mdr/root/sdtm/datasets/DM/variables/ARMCD", "title": "Version-agnostic anchor resource for SDTM variable DM.ARMCD", "type": "Root Data Element"}, "self": {"href": "/mdr/sdtm/1-3/datasets/DM/variables/ARMCD", "title": "Planned Arm Code", "type": "SDTM Dataset Variable"}}, "description": "Short name for the Arm to which the subject was assigned, limited to 20 characters.", "label": "Planned Arm Code", "name": "ARMCD", "ordinal": "26", "role": "Qualifier", "roleDescription": "Qualifier", "simpleDatatype": "Char"}, {"_links": {"parentDataset": {"href": "/mdr/sdtm/1-3/datasets/DM", "title": "Subject Demographics", "type": "SDTM Dataset"}, "parentProduct": {"href": "/mdr/sdtm/1-3", "title": "Study Data Tabulation Model Version 1.3", "type": "Foundational Model"}, "priorVersion": {"href": "/mdr/sdtm/1-2/datasets/DM/variables/ARM", "title": "Description of Planned Arm", "type": "SDTM Dataset Variable"}, "rootItem": {"href": "/mdr/root/sdtm/datasets/DM/variables/ARM", "title": "Version-agnostic anchor resource for SDTM variable DM.ARM", "type": "Root Data Element"}, "self": {"href": "/mdr/sdtm/1-3/datasets/DM/variables/ARM", "title": "Description of Planned Arm", "type": "SDTM Dataset Variable"}}, "description": "Name of the Arm to which the subject was assigned.", "label": "Description of Planned Arm", "name": "ARM", "ordinal": "27", "role": "Qualifier", "roleDescription": "Qualifier", "simpleDatatype": "Char"}, {"_links": {"parentDataset": {"href": "/mdr/sdtm/1-3/datasets/DM", "title": "Subject Demographics", "type": "SDTM Dataset"}, "parentProduct": {"href": "/mdr/sdtm/1-3", "title": "Study Data Tabulation Model Version 1.3", "type": "Foundational Model"}, "rootItem": {"href": "/mdr/root/sdtm/datasets/DM/variables/ACTARMCD", "title": "Version-agnostic anchor resource for SDTM variable DM.ACTARMCD", "type": "Root Data Element"}, "self": {"href": "/mdr/sdtm/1-3/datasets/DM/variables/ACTARMCD", "title": "Actual Arm Code", "type": "SDTM Dataset Variable"}}, "description": "Short name for the actual Arm in which the subject participated during the trial, limited to 20 characters.", "label": "Actual Arm Code", "name": "ACTARMCD", "ordinal": "28", "role": "Qualifier", "roleDescription": "Qualifier", "simpleDatatype": "Char"}, {"_links": {"parentDataset": {"href": "/mdr/sdtm/1-3/datasets/DM", "title": "Subject Demographics", "type": "SDTM Dataset"}, "parentProduct": {"href": "/mdr/sdtm/1-3", "title": "Study Data Tabulation Model Version 1.3", "type": "Foundational Model"}, "rootItem": {"href": "/mdr/root/sdtm/datasets/DM/variables/ACTARM", "title": "Version-agnostic anchor resource for SDTM variable DM.ACTARM", "type": "Root Data Element"}, "self": {"href": "/mdr/sdtm/1-3/datasets/DM/variables/ACTARM", "title": "Description of Actual Arm", "type": "SDTM Dataset Variable"}}, "description": "Description of the actual Arm in which the subject participated during the trial.", "label": "Description of Actual Arm", "name": "ACTARM", "ordinal": "29", "role": "Qualifier", "roleDescription": "Qualifier", "simpleDatatype": "Char"}, {"_links": {"parentDataset": {"href": "/mdr/sdtm/1-3/datasets/DM", "title": "Subject Demographics", "type": "SDTM Dataset"}, "parentProduct": {"href": "/mdr/sdtm/1-3", "title": "Study Data Tabulation Model Version 1.3", "type": "Foundational Model"}, "rootItem": {"href": "/mdr/root/sdtm/datasets/DM/variables/SETCD", "title": "Version-agnostic anchor resource for SDTM variable DM.SETCD", "type": "Root Data Element"}, "self": {"href": "/mdr/sdtm/1-3/datasets/DM/variables/SETCD", "title": "Set Code", "type": "SDTM Dataset Variable"}}, "description": "Short name of a specific Trial Set (see Table 3.2.4), as defined by the sponsor. Maximum of 8 characters. This represents the code for the Trial Set for which parameters are being submitted.", "label": "Set Code", "name": "SETCD", "ordinal": "30", "role": "Qualifier", "roleDescription": "Qualifier", "simpleDatatype": "Char"}, {"_links": {"parentDataset": {"href": "/mdr/sdtm/1-3/datasets/DM", "title": "Subject Demographics", "type": "SDTM Dataset"}, "parentProduct": {"href": "/mdr/sdtm/1-3", "title": "Study Data Tabulation Model Version 1.3", "type": "Foundational Model"}, "priorVersion": {"href": "/mdr/sdtm/1-2/datasets/DM/variables/COUNTRY", "title": "Country", "type": "SDTM Dataset Variable"}, "rootItem": {"href": "/mdr/root/sdtm/datasets/DM/variables/COUNTRY", "title": "Version-agnostic anchor resource for SDTM variable DM.COUNTRY", "type": "Root Data Element"}, "self": {"href": "/mdr/sdtm/1-3/datasets/DM/variables/COUNTRY", "title": "Country", "type": "SDTM Dataset Variable"}}, "description": "Country of the investigational site at which the subject participated in the trial in ISO 3166 three-character format.", "label": "Country", "name": "COUNTRY", "ordinal": "31", "role": "Qualifier", "roleDescription": "Qualifier", "simpleDatatype": "Char"}, {"_links": {"parentDataset": {"href": "/mdr/sdtm/1-3/datasets/DM", "title": "Subject Demographics", "type": "SDTM Dataset"}, "parentProduct": {"href": "/mdr/sdtm/1-3", "title": "Study Data Tabulation Model Version 1.3", "type": "Foundational Model"}, "priorVersion": {"href": "/mdr/sdtm/1-2/datasets/DM/variables/DMDTC", "title": "Date/Time of Collection", "type": "SDTM Dataset Variable"}, "rootItem": {"href": "/mdr/root/sdtm/datasets/DM/variables/DMDTC", "title": "Version-agnostic anchor resource for SDTM variable DM.DMDTC", "type": "Root Data Element"}, "self": {"href": "/mdr/sdtm/1-3/datasets/DM/variables/DMDTC", "title": "Date/Time of Collection", "type": "SDTM Dataset Variable"}}, "description": "Date/time of collection of the demographic information in ISO 8601 character format.", "label": "Date/Time of Collection", "name": "DMDTC", "ordinal": "32", "role": "Timing", "roleDescription": "Timing", "simpleDatatype": "Char"}, {"_links": {"parentDataset": {"href": "/mdr/sdtm/1-3/datasets/DM", "title": "Subject Demographics", "type": "SDTM Dataset"}, "parentProduct": {"href": "/mdr/sdtm/1-3", "title": "Study Data Tabulation Model Version 1.3", "type": "Foundational Model"}, "priorVersion": {"href": "/mdr/sdtm/1-2/datasets/DM/variables/DMDY", "title": "Study Day of Collection", "type": "SDTM Dataset Variable"}, "rootItem": {"href": "/mdr/root/sdtm/datasets/DM/variables/DMDY", "title": "Version-agnostic anchor resource for SDTM variable DM.DMDY", "type": "Root Data Element"}, "self": {"href": "/mdr/sdtm/1-3/datasets/DM/variables/DMDY", "title": "Study Day of Collection", "type": "SDTM Dataset Variable"}}, "description": "Study day of collection measured as integer days. Algorithm for calculations must be relative to the sponsor-defined RFSTDTC in Demographics.", "label": "Study Day of Collection", "name": "DMDY", "ordinal": "33", "role": "Timing", "roleDescription": "Timing", "simpleDatatype": "Num"}], "description": "A special-purpose domain that includes a set of essential standard variables that describe each subject in a clinical study. It is the parent domain for all other observations for human clinical subjects. (Source: CDISC Controlled Terminology, DOMAIN, C49572, 2018-06-29)", "label": "Subject Demographics", "name": "DM", "ordinal": "1"}, {"_links": {"parentClass": {"href": "/mdr/sdtm/1-3/classes/SpecialPurpose", "title": "Special-Purpose Datasets", "type": "Class"}, "parentProduct": {"href": "/mdr/sdtm/1-3", "title": "Study Data Tabulation Model Version 1.3", "type": "Foundational Model"}, "priorVersion": {"href": "/mdr/sdtm/1-2/datasets/CO", "title": "Comments", "type": "SDTM Dataset"}, "self": {"href": "/mdr/sdtm/1-3/datasets/CO", "title": "Comments", "type": "SDTM Dataset"}}, "datasetVariables": [{"_links": {"parentDataset": {"href": "/mdr/sdtm/1-3/datasets/CO", "title": "Comments", "type": "SDTM Dataset"}, "parentProduct": {"href": "/mdr/sdtm/1-3", "title": "Study Data Tabulation Model Version 1.3", "type": "Foundational Model"}, "priorVersion": {"href": "/mdr/sdtm/1-2/datasets/CO/variables/STUDYID", "title": "Study Identifier", "type": "SDTM Dataset Variable"}, "rootItem": {"href": "/mdr/root/sdtm/datasets/CO/variables/STUDYID", "title": "Version-agnostic anchor resource for SDTM variable CO.STUDYID", "type": "Root Data Element"}, "self": {"href": "/mdr/sdtm/1-3/datasets/CO/variables/STUDYID", "title": "Study Identifier", "type": "SDTM Dataset Variable"}}, "description": "Unique identifier for a study.", "label": "Study Identifier", "name": "STUDYID", "ordinal": "1", "role": "Identifier", "roleDescription": "Identifier", "simpleDatatype": "Char"}, {"_links": {"parentDataset": {"href": "/mdr/sdtm/1-3/datasets/CO", "title": "Comments", "type": "SDTM Dataset"}, "parentProduct": {"href": "/mdr/sdtm/1-3", "title": "Study Data Tabulation Model Version 1.3", "type": "Foundational Model"}, "priorVersion": {"href": "/mdr/sdtm/1-2/datasets/CO/variables/DOMAIN", "title": "Domain Abbreviation", "type": "SDTM Dataset Variable"}, "rootItem": {"href": "/mdr/root/sdtm/datasets/CO/variables/DOMAIN", "title": "Version-agnostic anchor resource for SDTM variable CO.DOMAIN", "type": "Root Data Element"}, "self": {"href": "/mdr/sdtm/1-3/datasets/CO/variables/DOMAIN", "title": "Domain Abbreviation", "type": "SDTM Dataset Variable"}}, "description": "Two-character abbreviation for the domain which must be CO.", "label": "Domain Abbreviation", "name": "DOMAIN", "ordinal": "2", "role": "Identifier", "roleDescription": "Identifier", "simpleDatatype": "Char"}, {"_links": {"parentDataset": {"href": "/mdr/sdtm/1-3/datasets/CO", "title": "Comments", "type": "SDTM Dataset"}, "parentProduct": {"href": "/mdr/sdtm/1-3", "title": "Study Data Tabulation Model Version 1.3", "type": "Foundational Model"}, "priorVersion": {"href": "/mdr/sdtm/1-2/datasets/CO/variables/RDOMAIN", "title": "Related Domain Abbreviation", "type": "SDTM Dataset Variable"}, "rootItem": {"href": "/mdr/root/sdtm/datasets/CO/variables/RDOMAIN", "title": "Version-agnostic anchor resource for SDTM variable CO.RDOMAIN", "type": "Root Data Element"}, "self": {"href": "/mdr/sdtm/1-3/datasets/CO/variables/RDOMAIN", "title": "Related Domain Abbreviation", "type": "SDTM Dataset Variable"}}, "description": "Domain Abbreviation of the parent record(s). Null for records collected on general comments or additional information CRF page.", "label": "Related Domain Abbreviation", "name": "RDOMAIN", "ordinal": "3", "role": "Record Qualifier", "roleDescription": "Record Qualifier", "simpleDatatype": "Char"}, {"_links": {"parentDataset": {"href": "/mdr/sdtm/1-3/datasets/CO", "title": "Comments", "type": "SDTM Dataset"}, "parentProduct": {"href": "/mdr/sdtm/1-3", "title": "Study Data Tabulation Model Version 1.3", "type": "Foundational Model"}, "priorVersion": {"href": "/mdr/sdtm/1-2/datasets/CO/variables/USUBJID", "title": "Unique Subject Identifier", "type": "SDTM Dataset Variable"}, "rootItem": {"href": "/mdr/root/sdtm/datasets/CO/variables/USUBJID", "title": "Version-agnostic anchor resource for SDTM variable CO.USUBJID", "type": "Root Data Element"}, "self": {"href": "/mdr/sdtm/1-3/datasets/CO/variables/USUBJID", "title": "Unique Subject Identifier", "type": "SDTM Dataset Variable"}}, "description": "Identifier used to uniquely identify a subject across all studies for all applications or submissions involving the product.", "label": "Unique Subject Identifier", "name": "USUBJID", "ordinal": "4", "role": "Identifier", "roleDescription": "Identifier", "simpleDatat