{
  "name": "Test-Case 12 CT 2020-01-01",
  "label": "Test-Case 12 Controlled Terminology Package 1 Effective 2020-01-01",
  "description": "Test-Case 12: Three different term submission values.",
  "source": "Test source",
  "effectiveDate": "2020-01-01",
  "registrationStatus": "Final",
  "version": "2020-01-01",
  "_links": {
    "self": {
      "href": "/mdr/ct/packages/case12-2020-01-01",
      "title": "Test-Case 12 Controlled Terminology Package 2 Effective 2020-01-01",
      "type": "Terminology"
    },
    "priorVersion": {
      "href": "/mdr/ct/packages/case12-2019-12-01",
      "title": "Test-Case 12 Controlled Terminology Package 1 Effective 2019-12-01",
      "type": "Terminology"
    }
  },
  "codelists": [
    {
      "conceptId": "C66767",
      "extensible": "false",
      "name": "Action Taken with Study Treatment",
      "submissionValue": "ACN",
      "definition": "Definition C66767",
      "preferredTerm": "PT C66767",
      "synonyms": [
        "Action Taken with Study Treatment"
      ],
      "terms": [
        {
          "conceptId": "C48660",
          "submissionValue": "NOT APPLICABLE",
          "definition": "Determination of a value is not relevant in the current context. (NCI)",
          "preferredTerm": "Not Applicable",
          "synonyms": [
            "NA",
            "Not Applicable"
          ]
        }
      ]
    },
    {
      "conceptId": "C85495",
      "extensible": "false",
      "name": "Microbiology Susceptibility Testing Result Category",
      "submissionValue": "MSRESCAT",
      "definition": "Definition C85495",
      "preferredTerm": "PT C85495",
      "synonyms": [
        "Microbiology Susceptibility Testing Result Category"
      ],
      "terms": [
        {
          "conceptId": "C48660",
          "submissionValue": "NOT APPLICABLE",
          "definition": "Determination of a value is not relevant in the current context. (NCI)",
          "preferredTerm": "Not Applicable",
          "synonyms": [
            "NA",
            "Not Applicable"
          ]
        }
      ]
    },
    {
      "conceptId": "C66742",
      "extensible": "false",
      "name": "No Yes Response",
      "submissionValue": "NY",
      "definition": "Definition C66742",
      "preferredTerm": "PT C66742",
      "synonyms": [
        "No Yes Response"
      ],
      "terms": [
        {
          "conceptId": "C48660",
          "submissionValue": "NA",
          "definition": "Determination of a value is not relevant in the current context. (NCI)",
          "preferredTerm": "Not Applicable",
          "synonyms": [
            "NA",
            "Not Applicable"
          ]
        }
      ]
    },
    {
      "conceptId": "C66737",
      "extensible": "true",
      "name": "Trial Phase Response",
      "submissionValue": "TPHASE",
      "definition": "Definition C66737",
      "preferredTerm": "PT C66737",
      "synonyms": [
        "Trial Phase Response"
      ],
      "terms": [
        {
          "conceptId": "C48660",
          "submissionValue": "NOT APPLICABLE",
          "definition": "Determination of a value is not relevant in the current context. (NCI)",
          "preferredTerm": "Not Applicable",
          "synonyms": [
            "NA",
            "Not Applicable"
          ]
        }
      ]
    },
    {
      "conceptId": "C-future",
      "extensible": "true",
      "name": "Future Codelist",
      "submissionValue": "SM-future",
      "definition": "Definition C-future",
      "preferredTerm": "PT",
      "synonyms": [],
      "terms": [
        {
          "conceptId": "C48660",
          "submissionValue": "N/A",
          "definition": "Determination of a value is not relevant in the current context. (NCI)",
          "preferredTerm": "Not Applicable",
          "synonyms": [
            "N/A",
            "NA",
            "Not Applicable"
          ]
        }
      ]
    }
  ]
}