{
  "name": "Test-Case 7 CT 2020-01-01",
  "label": "Test-Case 7 Controlled Terminology Package 1 Effective 2020-01-01",
  "description": "Test-Case 7: There is a codelist with the name 'Codelist 001' and another codelist with the name 'Codelist 002'. -> import code and name submission values and log as inconsistency.",
  "source": "Test source",
  "effectiveDate": "2020-01-01",
  "registrationStatus": "Final",
  "version": "2020-01-01",
  "_links": {
    "self": {
      "href": "/mdr/ct/packages/cat7-2020-01-01",
      "title": "Test-Case 7 Controlled Terminology Package 2 Effective 2020-01-01",
      "type": "Terminology"
    },
    "priorVersion": {
      "href": "/mdr/ct/packages/cat7-2019-12-01",
      "title": "Test-Case 7 Controlled Terminology Package 1 Effective 2019-12-01",
      "type": "Terminology"
    }
  },
  "codelists": [
    {
      "conceptId": "C1A",
      "extensible": "true",
      "name": "Codelist 1A",
      "submissionValue": "SV",
      "definition": "Definition 1A; goes together with 1B; differentiation via codelist submission values",
      "preferredTerm": "PT 1A",
      "terms": [
        {
          "conceptId": "T1",
          "submissionValue": "name-T1",
          "definition": "Definition T1",
          "preferredTerm": "PT T1"
        }
      ]
    },
    {
      "conceptId": "C1B",
      "extensible": "true",
      "name": "Codelist 1B",
      "submissionValue": "SV CD",
      "definition": "Definition 1B; goes together with 1A; differentiation via codelist submission values",
      "preferredTerm": "PT 1B",
      "terms": [
        {
          "conceptId": "T1",
          "submissionValue": "code-T1",
          "definition": "Definition T1",
          "preferredTerm": "PT T1"
        }
      ]
    },
    {
      "conceptId": "C2A",
      "extensible": "true",
      "name": "Codelist 2A",
      "submissionValue": "SV",
      "definition": "Definition 2A; goes together with 2B; differentiation via codelist submission values",
      "preferredTerm": "PT 2A",
      "terms": [
        {
          "conceptId": "T2",
          "submissionValue": "name-T2",
          "definition": "Definition T2",
          "preferredTerm": "PT T2"
        }
      ]
    },
    {
      "conceptId": "C2B",
      "extensible": "true",
      "name": "Codelist 2B",
      "submissionValue": "SVCD",
      "definition": "Definition 2B; goes together with 2A; differentiation via codelist submission values",
      "preferredTerm": "PT 2B",
      "terms": [
        {
          "conceptId": "T2",
          "submissionValue": "code-T2",
          "definition": "Definition T2",
          "preferredTerm": "PT T2"
        }
      ]
    },
    {
      "conceptId": "C3B",
      "extensible": "true",
      "name": "Codelist 3B",
      "submissionValue": "SVCD",
      "definition": "Definition 3B; goes together with C3A; differentiation via codelist submission values",
      "preferredTerm": "PT 3B",
      "terms": [
        {
          "conceptId": "T3-1",
          "submissionValue": "code-T3-1",
          "definition": "Definition T3-1",
          "preferredTerm": "PT T3-1"
        },
        {
          "conceptId": "T3-2",
          "submissionValue": "code-T3-2",
          "definition": "Definition T3-2",
          "preferredTerm": "PT T3-2"
        }
      ]
    },
    {
      "conceptId": "C3A",
      "extensible": "true",
      "name": "Codelist 3A",
      "submissionValue": "SV",
      "definition": "Definition 3A; goes together with C3B; differentiation via codelist submission values",
      "preferredTerm": "PT 3A",
      "terms": [
        {
          "conceptId": "T3-1",
          "submissionValue": "name-T3-1",
          "definition": "Definition T3-1",
          "preferredTerm": "PT T3-1"
        },
        {
          "conceptId": "T3-2",
          "submissionValue": "name-T3-2",
          "definition": "Definition T3-2",
          "preferredTerm": "PT T3-2"
        }
      ]
    }
  ]
}