{
  "name": "Test-Case 5 CT 2020-01-01",
  "label": "Test-Case 5 Controlled Terminology Package 1 Effective 2020-01-01",
  "description": "Test-Case 5: There is a codelist with the name 'Codelist 001 Name' and another codelist with the name 'Codelist 001'. -> import code and name submission values.",
  "source": "Test source",
  "effectiveDate": "2020-01-01",
  "registrationStatus": "Final",
  "version": "2020-01-01",
  "_links": {
    "self": {
      "href": "/mdr/ct/packages/cat5-2020-01-01",
      "title": "Test-Case 5 Controlled Terminology Package 2 Effective 2020-01-01",
      "type": "Terminology"
    },
    "priorVersion": {
      "href": "/mdr/ct/packages/cat5-2019-12-01",
      "title": "Test-Case 5 Controlled Terminology Package 1 Effective 2019-12-01",
      "type": "Terminology"
    }
  },
  "codelists": [
    {
      "conceptId": "C001",
      "extensible": "true",
      "name": "Codelist 001 Name",
      "submissionValue": "SMN001",
      "definition": "Definition C001; goes together with C002",
      "preferredTerm": "PT C001",
      "terms": [
        {
          "conceptId": "T001",
          "submissionValue": "name-SMT001",
          "definition": "Definition T001",
          "preferredTerm": "PT T001"
        }
      ]
    },
    {
      "conceptId": "C002",
      "extensible": "true",
      "name": "Codelist 001",
      "submissionValue": "SMN002",
      "definition": "Definition C002; goes together with C001",
      "preferredTerm": "PT C002",
      "terms": [
        {
          "conceptId": "T001",
          "submissionValue": "code-SMT001",
          "definition": "Definition T001",
          "preferredTerm": "PT T001"
        }
      ]
    }
  ]
}