{
    "_links": {
        "model": {
            "href": "/mdr/sdtm/1-2",
            "title": "Study Data Tabulation Model Version 1.2",
            "type": "Foundational Model"
        },
        "self": {
            "href": "/mdr/sdtmig/3-1-2",
            "title": "Study Data Tabulation Model Implementation Guide: Human Clinical Trials Version 3.1.2 (Final)",
            "type": "Implementation Guide"
        }
    },
    "classes": [
        {
            "_links": {
                "modelClass": {
                    "href": "/mdr/sdtm/1-2/classes/GeneralObservations",
                    "title": "General Observation Class",
                    "type": "Class"
                },
                "parentProduct": {
                    "href": "/mdr/sdtmig/3-1-2",
                    "title": "Study Data Tabulation Model Implementation Guide: Human Clinical Trials Version 3.1.2 (Final)",
                    "type": "Implementation Guide"
                },
                "self": {
                    "href": "/mdr/sdtmig/3-1-2/classes/GeneralObservations",
                    "title": "General Observation Class",
                    "type": "Class"
                },
                "subclasses": [
                    {
                        "href": "/mdr/sdtmig/3-1-2/classes/Interventions",
                        "title": "Interventions Observation Class",
                        "type": "Class"
                    },
                    {
                        "href": "/mdr/sdtmig/3-1-2/classes/Events",
                        "title": "Events Observation Class",
                        "type": "Class"
                    },
                    {
                        "href": "/mdr/sdtmig/3-1-2/classes/Findings",
                        "title": "Findings Observation Class",
                        "type": "Class"
                    }
                ]
            },
            "description": "The majority of observations collected during a study can be divided among three general classes: Interventions, Events, or Findings.  Datasets based on any of the general observation classes share a set of common Identifier and Timing variables. As a general rule, any valid Identifier or Timing variable is permissible for use in any submission dataset based on a general observation class. (Source: SDTM v1.2, Section 2.2)",
            "label": "General Observation Class",
            "name": "General Observations",
            "ordinal": "1"
        },
        {
            "_links": {
                "modelClass": {
                    "href": "/mdr/sdtm/1-2/classes/SpecialPurpose",
                    "title": "Special-Purpose Datasets",
                    "type": "Class"
                },
                "parentProduct": {
                    "href": "/mdr/sdtmig/3-1-2",
                    "title": "Study Data Tabulation Model Implementation Guide: Human Clinical Trials Version 3.1.2 (Final)",
                    "type": "Implementation Guide"
                },
                "self": {
                    "href": "/mdr/sdtmig/3-1-2/classes/SpecialPurpose",
                    "title": "Special-Purpose Datasets",
                    "type": "Class"
                }
            },
            "datasets": [
                {
                    "_links": {
                        "modelDataset": {
                            "href": "/mdr/sdtm/1-2/datasets/DM",
                            "title": "Subject Demographics",
                            "type": "SDTM Dataset"
                        },
                        "parentClass": {
                            "href": "/mdr/sdtmig/3-1-2/classes/SpecialPurpose",
                            "title": "Special-Purpose Datasets",
                            "type": "Class"
                        },
                        "parentProduct": {
                            "href": "/mdr/sdtmig/3-1-2",
                            "title": "Study Data Tabulation Model Implementation Guide: Human Clinical Trials Version 3.1.2 (Final)",
                            "type": "Implementation Guide"
                        },
                        "self": {
                            "href": "/mdr/sdtmig/3-1-2/datasets/DM",
                            "title": "Demographics",
                            "type": "SDTM Dataset"
                        }
                    },
                    "datasetStructure": "One record per subject",
                    "datasetVariables": [
                        {
                            "_links": {
                                "modelDatasetVariable": {
                                    "href": "/mdr/sdtm/1-2/datasets/DM/variables/STUDYID",
                                    "title": "Study Identifier",
                                    "type": "SDTM Dataset Variable"
                                },
                                "parentDataset": {
                                    "href": "/mdr/sdtmig/3-1-2/datasets/DM",
                                    "title": "Demographics",
                                    "type": "SDTM Dataset"
                                },
                                "parentProduct": {
                                    "href": "/mdr/sdtmig/3-1-2",
                                    "title": "Study Data Tabulation Model Implementation Guide: Human Clinical Trials Version 3.1.2 (Final)",
                                    "type": "Implementation Guide"
                                },
                                "rootItem": {
                                    "href": "/mdr/root/sdtmig/datasets/DM/variables/STUDYID",
                                    "title": "Version-agnostic anchor resource for SDTMIG variable DM.STUDYID",
                                    "type": "Root Data Element"
                                },
                                "self": {
                                    "href": "/mdr/sdtmig/3-1-2/datasets/DM/variables/STUDYID",
                                    "title": "Study Identifier",
                                    "type": "SDTM Dataset Variable"
                                }
                            },
                            "core": "Req",
                            "description": "Unique identifier for a study.",
                            "label": "Study Identifier",
                            "name": "STUDYID",
                            "ordinal": "1",
                            "role": "Identifier",
                            "simpleDatatype": "Char"
                        },
                        {
                            "_links": {
                                "modelDatasetVariable": {
                                    "href": "/mdr/sdtm/1-2/datasets/DM/variables/DOMAIN",
                                    "title": "Domain Abbreviation",
                                    "type": "SDTM Dataset Variable"
                                },
                                "parentDataset": {
                                    "href": "/mdr/sdtmig/3-1-2/datasets/DM",
                                    "title": "Demographics",
                                    "type": "SDTM Dataset"
                                },
                                "parentProduct": {
                                    "href": "/mdr/sdtmig/3-1-2",
                                    "title": "Study Data Tabulation Model Implementation Guide: Human Clinical Trials Version 3.1.2 (Final)",
                                    "type": "Implementation Guide"
                                },
                                "rootItem": {
                                    "href": "/mdr/root/sdtmig/datasets/DM/variables/DOMAIN",
                                    "title": "Version-agnostic anchor resource for SDTMIG variable DM.DOMAIN",
                                    "type": "Root Data Element"
                                },
                                "self": {
                                    "href": "/mdr/sdtmig/3-1-2/datasets/DM/variables/DOMAIN",
                                    "title": "Domain Abbreviation",
                                    "type": "SDTM Dataset Variable"
                                }
                            },
                            "core": "Req",
                            "description": "Two-character abbreviation for the domain.",
                            "label": "Domain Abbreviation",
                            "name": "DOMAIN",
                            "ordinal": "2",
                            "role": "Identifier",
                            "simpleDatatype": "Char",
                            "valueList": [
                                "DM"
                            ]
                        },
                        {
                            "_links": {
                                "modelDatasetVariable": {
                                    "href": "/mdr/sdtm/1-2/datasets/DM/variables/USUBJID",
                                    "title": "Unique Subject Identifier",
                                    "type": "SDTM Dataset Variable"
                                },
                                "parentDataset": {
                                    "href": "/mdr/sdtmig/3-1-2/datasets/DM",
                                    "title": "Demographics",
                                    "type": "SDTM Dataset"
                                },
                                "parentProduct": {
                                    "href": "/mdr/sdtmig/3-1-2",
                                    "title": "Study Data Tabulation Model Implementation Guide: Human Clinical Trials Version 3.1.2 (Final)",
                                    "type": "Implementation Guide"
                                },
                                "rootItem": {
                                    "href": "/mdr/root/sdtmig/datasets/DM/variables/USUBJID",
                                    "title": "Version-agnostic anchor resource for SDTMIG variable DM.USUBJID",
                                    "type": "Root Data Element"
                                },
                                "self": {
                                    "href": "/mdr/sdtmig/3-1-2/datasets/DM/variables/USUBJID",
                                    "title": "Unique Subject Identifier",
                                    "type": "SDTM Dataset Variable"
                                }
                            },
                            "core": "Req",
                            "description": "Identifier used to uniquely identify a subject across all studies for all applications or submissions involving the product. This must be a unique number, and could be a compound identifier formed by concatenating STUDYID-SITEID-SUBJID.",
                            "label": "Unique Subject Identifier",
                            "name": "USUBJID",
                            "ordinal": "3",
                            "role": "Identifier",
                            "simpleDatatype": "Char"
                        },
                        {
                            "_links": {
                                "modelDatasetVariable": {
                                    "href": "/mdr/sdtm/1-2/datasets/DM/variables/SUBJID",
                                    "title": "Subject Identifier for the Study",
                                    "type": "SDTM Dataset Variable"
                                },
                                "parentDataset": {
                                    "href": "/mdr/sdtmig/3-1-2/datasets/DM",
                                    "title": "Demographics",
                                    "type": "SDTM Dataset"
                                },
                                "parentProduct": {
                                    "href": "/mdr/sdtmig/3-1-2",
                                    "title": "Study Data Tabulation Model Implementation Guide: Human Clinical Trials Version 3.1.2 (Final)",
                                    "type": "Implementation Guide"
                                },
                                "rootItem": {
                                    "href": "/mdr/root/sdtmig/datasets/DM/variables/SUBJID",
                                    "title": "Version-agnostic anchor resource for SDTMIG variable DM.SUBJID",
                                    "type": "Root Data Element"
                                },
                                "self": {
                                    "href": "/mdr/sdtmig/3-1-2/datasets/DM/variables/SUBJID",
                                    "title": "Subject Identifier for the Study",
                                    "type": "SDTM Dataset Variable"
                                }
                            },
                            "core": "Req",
                            "description": "Subject identifier, which must be unique within the study. Often the ID of the subject as recorded on a CRF.",
                            "label": "Subject Identifier for the Study",
                            "name": "SUBJID",
                            "ordinal": "4",
                            "role": "Topic",
                            "simpleDatatype": "Char"
                        },
                        {
                            "_links": {
                                "modelDatasetVariable": {
                                    "href": "/mdr/sdtm/1-2/datasets/DM/variables/RFSTDTC",
                                    "title": "Subject Reference Start Date/Time",
                                    "type": "SDTM Dataset Variable"
                                },
                                "parentDataset": {
                                    "href": "/mdr/sdtmig/3-1-2/datasets/DM",
                                    "title": "Demographics",
                                    "type": "SDTM Dataset"
                                },
                                "parentProduct": {
                                    "href": "/mdr/sdtmig/3-1-2",
                                    "title": "Study Data Tabulation Model Implementation Guide: Human Clinical Trials Version 3.1.2 (Final)",
                                    "type": "Implementation Guide"
                                },
                                "rootItem": {
                                    "href": "/mdr/root/sdtmig/datasets/DM/variables/RFSTDTC",
                                    "title": "Version-agnostic anchor resource for SDTMIG variable DM.RFSTDTC",
                                    "type": "Root Data Element"
                                },
                                "self": {
                                    "href": "/mdr/sdtmig/3-1-2/datasets/DM/variables/RFSTDTC",
                                    "title": "Subject Reference Start Date/Time",
                                    "type": "SDTM Dataset Variable"
                                }
                            },
                            "core": "Exp",
                            "describedValueDomain": "ISO 8601",
                            "description": "Reference Start Date/time for the subject in ISO 8601 character format. Usually equivalent to date/time when subject was first exposed to study treatment. Required for all randomized subjects; will be null for all subjects who did not meet the milestone the date requires, such as screen failures or unassigned subjects.",
                            "label": "Subject Reference Start Date/Time",
                            "name": "RFSTDTC",
                            "ordinal": "5",
                            "role": "Record Qualifier",
                            "simpleDatatype": "Char"
                        },
                        {
                            "_links": {
                                "modelDatasetVariable": {
                                    "href": "/mdr/sdtm/1-2/datasets/DM/variables/RFENDTC",
                                    "title": "Subject Reference End Date/Time",
                                    "type": "SDTM Dataset Variable"
                                },
                                "parentDataset": {
                                    "href": "/mdr/sdtmig/3-1-2/datasets/DM",
                                    "title": "Demographics",
                                    "type": "SDTM Dataset"
                                },
                                "parentProduct": {
                                    "href": "/mdr/sdtmig/3-1-2",
                                    "title": "Study Data Tabulation Model Implementation Guide: Human Clinical Trials Version 3.1.2 (Final)",
                                    "type": "Implementation Guide"
                                },
                                "rootItem": {
                                    "href": "/mdr/root/sdtmig/datasets/DM/variables/RFENDTC",
                                    "title": "Version-agnostic anchor resource for SDTMIG variable DM.RFENDTC",
                                    "type": "Root Data Element"
                                },
                                "self": {
                                    "href": "/mdr/sdtmig/3-1-2/datasets/DM/variables/RFENDTC",
                                    "title": "Subject Reference End Date/Time",
                                    "type": "SDTM Dataset Variable"
                                }
                            },
                            "core": "Exp",
                            "describedValueDomain": "ISO 8601",
                            "description": "Reference End Date/time for the subject in ISO 8601 character format. Usually equivalent to the date/time when subject was determined to have ended the trial, and often equivalent to date/time of last exposure to study treatment. Required for all randomized subjects; null for screen failures or unassigned subjects.",
                            "label": "Subject Reference End Date/Time",
                            "name": "RFENDTC",
                            "ordinal": "6",
                            "role": "Record Qualifier",
                            "simpleDatatype": "Char"
                        },
                        {
                            "_links": {
                                "modelDatasetVariable": {
                                    "href": "/mdr/sdtm/1-2/datasets/DM/variables/SITEID",
                                    "title": "Study Site Identifier",
                                    "type": "SDTM Dataset Variable"
                                },
                                "parentDataset": {
                                    "href": "/mdr/sdtmig/3-1-2/datasets/DM",
                                    "title": "Demographics",
                                    "type": "SDTM Dataset"
                                },
                                "parentProduct": {
                                    "href": "/mdr/sdtmig/3-1-2",
                                    "title": "Study Data Tabulation Model Implementation Guide: Human Clinical Trials Version 3.1.2 (Final)",
                                    "type": "Implementation Guide"
                                },
                                "rootItem": {
                                    "href": "/mdr/root/sdtmig/datasets/DM/variables/SITEID",
                                    "title": "Version-agnostic anchor resource for SDTMIG variable DM.SITEID",
                                    "type": "Root Data Element"
                                },
                                "self": {
                                    "href": "/mdr/sdtmig/3-1-2/datasets/DM/variables/SITEID",
                                    "title": "Study Site Identifier",
                                    "type": "SDTM Dataset Variable"
                                }
                            },
                            "core": "Req",
                            "description": "Unique identifier for a site within a study.",
                            "label": "Study Site Identifier",
                            "name": "SITEID",
                            "ordinal": "7",
                            "role": "Record Qualifier",
                            "simpleDatatype": "Char"
                        },
                        {
                            "_links": {
                                "modelDatasetVariable": {
                                    "href": "/mdr/sdtm/1-2/datasets/DM/variables/INVID",
                                    "title": "Investigator Identifier",
                                    "type": "SDTM Dataset Variable"
                                },
                                "parentDataset": {
                                    "href": "/mdr/sdtmig/3-1-2/datasets/DM",
                                    "title": "Demographics",
                                    "type": "SDTM Dataset"
                                },
                                "parentProduct": {
                                    "href": "/mdr/sdtmig/3-1-2",
                                    "title": "Study Data Tabulation Model Implementation Guide: Human Clinical Trials Version 3.1.2 (Final)",
                                    "type": "Implementation Guide"
                                },
                                "rootItem": {
                                    "href": "/mdr/root/sdtmig/datasets/DM/variables/INVID",
                                    "title": "Version-agnostic anchor resource for SDTMIG variable DM.INVID",
                                    "type": "Root Data Element"
                                },
                                "self": {
                                    "href": "/mdr/sdtmig/3-1-2/datasets/DM/variables/INVID",
                                    "title": "Investigator Identifier",
                                    "type": "SDTM Dataset Variable"
                                }
                            },
                            "core": "Perm",
                            "description": "An identifier to describe the Investigator for the study. May be used in addition to SITEID. Not needed if SITEID is equivalent to INVID.",
                            "label": "Investigator Identifier",
                            "name": "INVID",
                            "ordinal": "8",
                            "role": "Record Qualifier",
                            "simpleDatatype": "Char"
                        },
                        {
                            "_links": {
                                "modelDatasetVariable": {
                                    "href": "/mdr/sdtm/1-2/datasets/DM/variables/INVNAM",
                                    "title": "Investigator Name",
                                    "type": "SDTM Dataset Variable"
                                },
                                "parentDataset": {
                                    "href": "/mdr/sdtmig/3-1-2/datasets/DM",
                                    "title": "Demographics",
                                    "type": "SDTM Dataset"
                                },
                                "parentProduct": {
                                    "href": "/mdr/sdtmig/3-1-2",
                                    "title": "Study Data Tabulation Model Implementation Guide: Human Clinical Trials Version 3.1.2 (Final)",
                                    "type": "Implementation Guide"
                                },
                                "rootItem": {
                                    "href": "/mdr/root/sdtmig/datasets/DM/variables/INVNAM",
                                    "title": "Version-agnostic anchor resource for SDTMIG variable DM.INVNAM",
                                    "type": "Root Data Element"
                                },
                                "self": {
                                    "href": "/mdr/sdtmig/3-1-2/datasets/DM/variables/INVNAM",
                                    "title": "Investigator Name",
                                    "type": "SDTM Dataset Variable"
                                }
                            },
                            "core": "Perm",
                            "description": "Name of the investigator for a site.",
                            "label": "Investigator Name",
                            "name": "INVNAM",
                            "ordinal": "9",
                            "role": "Synonym Qualifier",
                            "simpleDatatype": "Char"
                        },
                        {
                            "_links": {
                                "modelDatasetVariable": {
                                    "href": "/mdr/sdtm/1-2/datasets/DM/variables/BRTHDTC",
                                    "title": "Date/Time of Birth",
                                    "type": "SDTM Dataset Variable"
                                },
                                "parentDataset": {
                                    "href": "/mdr/sdtmig/3-1-2/datasets/DM",
                                    "title": "Demographics",
                                    "type": "SDTM Dataset"
                                },
                                "parentProduct": {
                                    "href": "/mdr/sdtmig/3-1-2",
                                    "title": "Study Data Tabulation Model Implementation Guide: Human Clinical Trials Version 3.1.2 (Final)",
                                    "type": "Implementation Guide"
                                },
                                "rootItem": {
                                    "href": "/mdr/root/sdtmig/datasets/DM/variables/BRTHDTC",
                                    "title": "Version-agnostic anchor resource for SDTMIG variable DM.BRTHDTC",
                                    "type": "Root Data Element"
                                },
                                "self": {
                                    "href": "/mdr/sdtmig/3-1-2/datasets/DM/variables/BRTHDTC",
                                    "title": "Date/Time of Birth",
                                    "type": "SDTM Dataset Variable"
                                }
                            },
                            "core": "Perm",
                            "describedValueDomain": "ISO 8601",
                            "description": "Date/time of birth of the subject.",
                            "label": "Date/Time of Birth",
                            "name": "BRTHDTC",
                            "ordinal": "10",
                            "role": "Record Qualifier",
                            "simpleDatatype": "Char"
                        },
                        {
                            "_links": {
                                "modelDatasetVariable": {
                                    "href": "/mdr/sdtm/1-2/datasets/DM/variables/AGE",
                                    "title": "Age",
                                    "type": "SDTM Dataset Variable"
                                },
                                "parentDataset": {
                                    "href": "/mdr/sdtmig/3-1-2/datasets/DM",
                                    "title": "Demographics",
                                    "type": "SDTM Dataset"
                                },
                                "parentProduct": {
                                    "href": "/mdr/sdtmig/3-1-2",
                                    "title": "Study Data Tabulation Model Implementation Guide: Human Clinical Trials Version 3.1.2 (Final)",
                                    "type": "Implementation Guide"
                                },
                                "rootItem": {
                                    "href": "/mdr/root/sdtmig/datasets/DM/variables/AGE",
                                    "title": "Version-agnostic anchor resource for SDTMIG variable DM.AGE",
                                    "type": "Root Data Element"
                                },
                                "self": {
                                    "href": "/mdr/sdtmig/3-1-2/datasets/DM/variables/AGE",
                                    "title": "Age",
                                    "type": "SDTM Dataset Variable"
                                }
                            },
                            "core": "Exp",
                            "description": "Age expressed in AGEU. May be derived from RFSTDTC and BRTHDTC, but BRTHDTC may not be available in all cases (due to subject privacy concerns).",
                            "label": "Age",
                            "name": "AGE",
                            "ordinal": "11",
                            "role": "Record Qualifier",
                            "simpleDatatype": "Num"
                        },
                        {
                            "_links": {
                                "codelist": [
                                    {
                                        "href": "/mdr/root/ct/sdtmct/codelists/C66781",
                                        "title": "Version-agnostic anchor resource for codelist C66781",
                                        "type": "Root Value Domain"
                                    }
                                ],
                                "modelDatasetVariable": {
                                    "href": "/mdr/sdtm/1-2/datasets/DM/variables/AGEU",
                                    "title": "Age Units",
                                    "type": "SDTM Dataset Variable"
                                },
                                "parentDataset": {
                                    "href": "/mdr/sdtmig/3-1-2/datasets/DM",
                                    "title": "Demographics",
                                    "type": "SDTM Dataset"
                                },
                                "parentProduct": {
                                    "href": "/mdr/sdtmig/3-1-2",
                                    "title": "Study Data Tabulation Model Implementation Guide: Human Clinical Trials Version 3.1.2 (Final)",
                                    "type": "Implementation Guide"
                                },
                                "rootItem": {
                                    "href": "/mdr/root/sdtmig/datasets/DM/variables/AGEU",
                                    "title": "Version-agnostic anchor resource for SDTMIG variable DM.AGEU",
                                    "type": "Root Data Element"
                                },
                                "self": {
                                    "href": "/mdr/sdtmig/3-1-2/datasets/DM/variables/AGEU",
                                    "title": "Age Units",
                                    "type": "SDTM Dataset Variable"
                                }
                            },
                            "core": "Exp",
                            "description": "Units associated with AGE.",
                            "label": "Age Units",
                            "name": "AGEU",
                            "ordinal": "12",
                            "role": "Variable Qualifier",
                            "simpleDatatype": "Char"
                        },
                        {
                            "_links": {
                                "codelist": [
                                    {
                                        "href": "/mdr/root/ct/sdtmct/codelists/C66731",
                                        "title": "Version-agnostic anchor resource for codelist C66731",
                                        "type": "Root Value Domain"
                                    }
                                ],
                                "modelDatasetVariable": {
                                    "href": "/mdr/sdtm/1-2/datasets/DM/variables/SEX",
                                    "title": "Sex",
                                    "type": "SDTM Dataset Variable"
                                },
                                "parentDataset": {
                                    "href": "/mdr/sdtmig/3-1-2/datasets/DM",
                                    "title": "Demographics",
                                    "type": "SDTM Dataset"
                                },
                                "parentProduct": {
                                    "href": "/mdr/sdtmig/3-1-2",
                                    "title": "Study Data Tabulation Model Implementation Guide: Human Clinical Trials Version 3.1.2 (Final)",
                                    "type": "Implementation Guide"
                                },
                                "rootItem": {
                                    "href": "/mdr/root/sdtmig/datasets/DM/variables/SEX",
                                    "title": "Version-agnostic anchor resource for SDTMIG variable DM.SEX",
                                    "type": "Root Data Element"
                                },
                                "self": {
                                    "href": "/mdr/sdtmig/3-1-2/datasets/DM/variables/SEX",
                                    "title": "Sex",
                                    "type": "SDTM Dataset Variable"
                                }
                            },
                            "core": "Req",
                            "description": "Sex of the subject.",
                            "label": "Sex",
                            "name": "SEX",
                            "ordinal": "13",
                            "role": "Record Qualifier",
                            "simpleDatatype": "Char"
                        },
                        {
                            "_links": {
                                "codelist": [
                                    {
                                        "href": "/mdr/root/ct/sdtmct/codelists/C74457",
                                        "title": "Version-agnostic anchor resource for codelist C74457",
                                        "type": "Root Value Domain"
                                    }
                                ],
                                "modelDatasetVariable": {
                                    "href": "/mdr/sdtm/1-2/datasets/DM/variables/RACE",
                                    "title": "Race",
                                    "type": "SDTM Dataset Variable"
                                },
                                "parentDataset": {
                                    "href": "/mdr/sdtmig/3-1-2/datasets/DM",
                                    "title": "Demographics",
                                    "type": "SDTM Dataset"
                                },
                                "parentProduct": {
                                    "href": "/mdr/sdtmig/3-1-2",
                                    "title": "Study Data Tabulation Model Implementation Guide: Human Clinical Trials Version 3.1.2 (Final)",
                                    "type": "Implementation Guide"
                                },
                                "rootItem": {
                                    "href": "/mdr/root/sdtmig/datasets/DM/variables/RACE",
                                    "title": "Version-agnostic anchor resource for SDTMIG variable DM.RACE",
                                    "type": "Root Data Element"
                                },
                                "self": {
                                    "href": "/mdr/sdtmig/3-1-2/datasets/DM/variables/RACE",
                                    "title": "Race",
                                    "type": "SDTM Dataset Variable"
                                }
                            },
                            "core": "Exp",
                            "description": "Race of the subject. Sponsors should refer to \"Collection of Race and Ethnicity Data in Clinical Trials\" (FDA, September 2005) for guidance regarding the collection of race (http://www.fda.gov/cder/guidance/5656fnl.htm) See Assumption below regarding RACE.",
                            "label": "Race",
                            "name": "RACE",
                            "ordinal": "14",
                            "role": "Record Qualifier",
                            "simpleDatatype": "Char"
                        },
                        {
                            "_links": {
                                "codelist": [
                                    {
                                        "href": "/mdr/root/ct/sdtmct/codelists/C66790",
                                        "title": "Version-agnostic anchor resource for codelist C66790",
                                        "type": "Root Value Domain"
                                    }
                                ],
                                "modelDatasetVariable": {
                                    "href": "/mdr/sdtm/1-2/datasets/DM/variables/ETHNIC",
                                    "title": "Ethnicity",
                                    "type": "SDTM Dataset Variable"
                                },
                                "parentDataset": {
                                    "href": "/mdr/sdtmig/3-1-2/datasets/DM",
                                    "title": "Demographics",
                                    "type": "SDTM Dataset"
                                },
                                "parentProduct": {
                                    "href": "/mdr/sdtmig/3-1-2",
                                    "title": "Study Data Tabulation Model Implementation Guide: Human Clinical Trials Version 3.1.2 (Final)",
                                    "type": "Implementation Guide"
                                },
                                "rootItem": {
                                    "href": "/mdr/root/sdtmig/datasets/DM/variables/ETHNIC",
                                    "title": "Version-agnostic anchor resource for SDTMIG variable DM.ETHNIC",
                                    "type": "Root Data Element"
                                },
                                "self": {
                                    "href": "/mdr/sdtmig/3-1-2/datasets/DM/variables/ETHNIC",
                                    "title": "Ethnicity",
                                    "type": "SDTM Dataset Variable"
                                }
                            },
                            "core": "Perm",
                            "description": "The ethnicity of the subject. Sponsors should refer to \"Collection of Race and Ethnicity Data in Clinical Trials\" (FDA, September 2005) for guidance regarding the collection of ethnicity (http://www.fda.gov/cder/guidance/5656fnl.htm).",
                            "label": "Ethnicity",
                            "name": "ETHNIC",
                            "ordinal": "15",
                            "role": "Record Qualifier",
                            "simpleDatatype": "Char"
                        },
                        {
                            "_links": {
                                "modelDatasetVariable": {
                                    "href": "/mdr/sdtm/1-2/datasets/DM/variables/ARMCD",
                                    "title": "Planned Arm Code",
                                    "type": "SDTM Dataset Variable"
                                },
                                "parentDataset": {
                                    "href": "/mdr/sdtmig/3-1-2/datasets/DM",
                                    "title": "Demographics",
                                    "type": "SDTM Dataset"
                                },
                                "parentProduct": {
                                    "href": "/mdr/sdtmig/3-1-2",
                                    "title": "Study Data Tabulation Model Implementation Guide: Human Clinical Trials Version 3.1.2 (Final)",
                                    "type": "Implementation Guide"
                                },
                                "rootItem": {
                                    "href": "/mdr/root/sdtmig/datasets/DM/variables/ARMCD",
                                    "title": "Version-agnostic anchor resource for SDTMIG variable DM.ARMCD",
                                    "type": "Root Data Element"
                                },
                                "self": {
                                    "href": "/mdr/sdtmig/3-1-2/datasets/DM/variables/ARMCD",
                                    "title": "Planned Arm Code",
                                    "type": "SDTM Dataset Variable"
                                }
                            },
                            "core": "Req",
                            "description": "ARMCD is limited to 20 characters and does not have special character restrictions. The maximum length of ARMCD is longer than for other \"short\" variables to accommodate the kind of values that are likely to be needed for crossover trials. For example, if ARMCD values for a seven-period crossover were constructed using two-character abbreviations for each treatment and separating hyphens, the length of ARMCD values would be 20.",
                            "label": "Planned Arm Code",
                            "name": "ARMCD",
                            "ordinal": "16",
                            "role": "Record Qualifier",
                            "simpleDatatype": "Char"
                        },
                        {
                            "_links": {
                                "modelDatasetVariable": {
                                    "href": "/mdr/sdtm/1-2/datasets/DM/variables/ARM",
                                    "title": "Description of Planned Arm",
                                    "type": "SDTM Dataset Variable"
                                },
                                "parentDataset": {
                                    "href": "/mdr/sdtmig/3-1-2/datasets/DM",
                                    "title": "Demographics",
                                    "type": "SDTM Dataset"
                                },
                                "parentProduct": {
                                    "href": "/mdr/sdtmig/3-1-2",
                                    "title": "Study Data Tabulation Model Implementation Guide: Human Clinical Trials Version 3.1.2 (Final)",
                                    "type": "Implementation Guide"
                                },
                                "rootItem": {
                                    "href": "/mdr/root/sdtmig/datasets/DM/variables/ARM",
                                    "title": "Version-agnostic anchor resource for SDTMIG variable DM.ARM",
                                    "type": "Root Data Element"
                                },
                                "self": {
                                    "href": "/mdr/sdtmig/3-1-2/datasets/DM/variables/ARM",
                                    "title": "Description of Planned Arm",
                                    "type": "SDTM Dataset Variable"
                                }
                            },
                            "core": "Req",
                            "description": "Name of the Arm to which the subject was assigned.",
                            "label": "Description of Planned Arm",
                            "name": "ARM",
                            "ordinal": "17",
                            "role": "Synonym Qualifier",
                            "simpleDatatype": "Char"
                        },
                        {
                            "_links": {
                                "modelDatasetVariable": {
                                    "href": "/mdr/sdtm/1-2/datasets/DM/variables/COUNTRY",
                                    "title": "Country",
                                    "type": "SDTM Dataset Variable"
                                },
                                "parentDataset": {
                                    "href": "/mdr/sdtmig/3-1-2/datasets/DM",
                                    "title": "Demographics",
                                    "type": "SDTM Dataset"
                                },
                                "parentProduct": {
                                    "href": "/mdr/sdtmig/3-1-2",
                                    "title": "Study Data Tabulation Model Implementation Guide: Human Clinical Trials Version 3.1.2 (Final)",
                                    "type": "Implementation Guide"
                                },
                                "rootItem": {
                                    "href": "/mdr/root/sdtmig/datasets/DM/variables/COUNTRY",
                                    "title": "Version-agnostic anchor resource for SDTMIG variable DM.COUNTRY",
                                    "type": "Root Data Element"
                                },
                                "self": {
                                    "href": "/mdr/sdtmig/3-1-2/datasets/DM/variables/COUNTRY",
                                    "title": "Country",
                                    "type": "SDTM Dataset Variable"
                                }
                            },
                            "core": "Req",
                            "describedValueDomain": "ISO 3166-1 Alpha-3",
                            "description": "Country of the investigational site in which the subject participated in the trial.",
                            "label": "Country",
                            "name": "COUNTRY",
                            "ordinal": "18",
                            "role": "Record Qualifier",
                            "simpleDatatype": "Char"
                        },
                        {
                            "_links": {
                                "modelDatasetVariable": {
                                    "href": "/mdr/sdtm/1-2/datasets/DM/variables/DMDTC",
                                    "title": "Date/Time of Collection",
                                    "type": "SDTM Dataset Variable"
                                },
                                "parentDataset": {
                                    "href": "/mdr/sdtmig/3-1-2/datasets/DM",
                                    "title": "Demographics",
                                    "type": "SDTM Dataset"
                                },
                                "parentProduct": {
                                    "href": "/mdr/sdtmig/3-1-2",
                                    "title": "Study Data Tabulation Model Implementation Guide: Human Clinical Trials Version 3.1.2 (Final)",
                                    "type": "Implementation Guide"
                                },
                                "rootItem": {
                                    "href": "/mdr/root/sdtmig/datasets/DM/variables/DMDTC",
                                    "title": "Version-agnostic anchor resource for SDTMIG variable DM.DMDTC",
                                    "type": "Root Data Element"
                                },
                                "self": {
                                    "href": "/mdr/sdtmig/3-1-2/datasets/DM/variables/DMDTC",
                                    "title": "Date/Time of Collection",
                                    "type": "SDTM Dataset Variable"
                                }
                            },
                            "core": "Perm",
                            "describedValueDomain": "ISO 8601",
                            "description": "Date/time of demographic data collection.",
                            "label": "Date/Time of Collection",
                            "name": "DMDTC",
                            "ordinal": "19",
                            "role": "Timing",
                            "simpleDatatype": "Char"
                        },
                        {
                            "_links": {
                                "modelDatasetVariable": {
                                    "href": "/mdr/sdtm/1-2/datasets/DM/variables/DMDY",
                                    "title": "Study Day of Collection",
                                    "type": "SDTM Dataset Variable"
                                },
                                "parentDataset": {
                                    "href": "/mdr/sdtmig/3-1-2/datasets/DM",
                                    "title": "Demographics",
                                    "type": "SDTM Dataset"
                                },
                                "parentProduct": {
                                    "href": "/mdr/sdtmig/3-1-2",
                                    "title": "Study Data Tabulation Model Implementation Guide: Human Clinical Trials Version 3.1.2 (Final)",
                                    "type": "Implementation Guide"
                                },
                                "rootItem": {
                                    "href": "/mdr/root/sdtmig/datasets/DM/variables/DMDY",
                                    "title": "Version-agnostic anchor resource for SDTMIG variable DM.DMDY",
                                    "type": "Root Data Element"
                                },
                                "self": {
                                    "href": "/mdr/sdtmig/3-1-2/datasets/DM/variables/DMDY",
                                    "title": "Study Day of Collection",
                                    "type": "SDTM Dataset Variable"
                                }
                            },
                            "core": "Perm",
                            "description": "Study day of collection measured as integer days.",
                            "label": "Study Day of Collection",
                            "name": "DMDY",
                            "ordinal": "20",
                            "role": "Timing",
                            "simpleDatatype": "Num"
                        }
                    ],
                    "description": "A special-purpose domain that includes a set of essential standard variables that describe each subject in a clinical study. It is the parent domain for all other observations for human clinical subjects. (Source: CDISC Controlled Terminology, DOMAIN, C49572, 2018-06-29)",
                    "label": "Demographics",
                    "name": "DM",
                    "ordinal": "1"
                },
                {
                    "_links": {
                        "modelDataset": {
                            "href": "/mdr/sdtm/1-2/datasets/CO",
                            "title": "Comments",
                            "type": "SDTM Dataset"
                        },
                        "parentClass": {
                            "href": "/mdr/sdtmig/3-1-2/classes/SpecialPurpose",
                            "title": "Special-Purpose Datasets",
                            "type": "Class"
                        },
                        "parentProduct": {
                            "href": "/mdr/sdtmig/3-1-2",
                            "title": "Study Data Tabulation Model Implementation Guide: Human Clinical Trials Version 3.1.2 (Final)",
                            "type": "Implementation Guide"
                        },
                        "self": {
                            "href": "/mdr/sdtmig/3-1-2/datasets/CO",
                            "title": "Comments",
                            "type": "SDTM Dataset"
                        }
                    },
                    "datasetStructure": "One record per comment per subject",
                    "datasetVariables": [
                        {
                            "_links": {
                                "modelDatasetVariable": {
                                    "href": "/mdr/sdtm/1-2/datasets/CO/variables/STUDYID",
                                    "title": "Study Identifier",
                                    "type": "SDTM Dataset Variable"
                                },
                                "parentDataset": {
                                    "href": "/mdr/sdtmig/3-1-2/datasets/CO",
                                    "title": "Comments",
                                    "type": "SDTM Dataset"
                                },
                                "parentProduct": {
                                    "href": "/mdr/sdtmig/3-1-2",
                                    "title": "Study Data Tabulation Model Implementation Guide: Human Clinical Trials Version 3.1.2 (Final)",
                                    "type": "Implementation Guide"
                                },
                                "rootItem": {
                                    "href": "/mdr/root/sdtmig/datasets/CO/variables/STUDYID",
                                    "title": "Version-agnostic anchor resource for SDTMIG variable CO.STUDYID",
                                    "type": "Root Data Element"
                                },
                                "self": {
                                    "href": "/mdr/sdtmig/3-1-2/datasets/CO/variables/STUDYID",
                                    "title": "Study Identifier",
                                    "type": "SDTM Dataset Variable"
                                }
                            },
                            "core": "Req",
                            "description": "Unique identifier for a study.",
                            "label": "Study Identifier",
                            "name": "STUDYID",
                            "ordinal": "1",
                            "role": "Identifier",
                            "simpleDatatype": "Char"
                        },
                        {
                            "_links": {
                                "modelDatasetVariable": {
                                    "href": "/mdr/sdtm/1-2/datasets/CO/variables/DOMAIN",
                                    "title": "Domain Abbreviation",
                                    "type": "SDTM Dataset Variable"
                                },
                                "parentDataset": {
                                    "href": "/mdr/sdtmig/3-1-2/datasets/CO",
                                    "title": "Comments",
                                    "type": "SDTM Dataset"
                                },
                                "parentProduct": {
                                    "href": "/mdr/sdtmig/3-1-2",
                                    "title": "Study Data Tabulation Model Implementation Guide: Human Clinical Trials Version 3.1.2 (Final)",
                                    "type": "Implementation Guide"
                                },
                                "rootItem": {
                                    "href": "/mdr/root/sdtmig/datasets/CO/variables/DOMAIN",
                                    "title": "Version-agnostic anchor resource for SDTMIG variable CO.DOMAIN",
                                    "type": "Root Data Element"
                                },
                                "self": {
                                    "href": "/mdr/sdtmig/3-1-2/datasets/CO/variables/DOMAIN",
                                    "title": "Domain Abbreviation",
                                    "type": "SDTM Dataset Variable"
                                }
                            },
                            "core": "Req",
                            "description": "Two-character abbreviation for the domain.",
                            "label": "Domain Abbreviation",
                            "name": "DOMAIN",
                            "ordinal": "2",
                            "role": "Identifier",
                            "simpleDatatype": "Char",
                            "valueList": [
                                "CO"
                            ]
                        },
                        {
                            "_links": {
                                "modelDatasetVariable": {
                                    "href": "/mdr/sdtm/1-2/datasets/CO/variables/RDOMAIN",
                                    "title": "Related Domain Abbreviation",
                                    "type": "SDTM Dataset Variable"
                                },
                                "parentDataset": {
                                    "href": "/mdr/sdtmig/3-1-2/datasets/CO",
                                    "title": "Comments",
                                    "type": "SDTM Dataset"
                                },
                                "parentProduct": {
                                    "href": "/mdr/sdtmig/3-1-2",
                                    "title": "Study Data Tabulation Model Implementation Guide: Human Clinical Trials Version 3.1.2 (Final)",
                                    "type": "Implementation Guide"
                                },
                                "rootItem": {
                                    "href": "/mdr/root/sdtmig/datasets/CO/variables/RDOMAIN",
                                    "title": "Version-agnostic anchor resource for SDTMIG variable CO.RDOMAIN",
                                    "type": "Root Data Element"
                                },
                                "self": {
                                    "href": "/mdr/sdtmig/3-1-2/datasets/CO/variables/RDOMAIN",
                                    "title": "Related Domain Abbreviation",
                                    "type": "SDTM Dataset Variable"
                                }
                            },
                            "core": "Perm",
                            "description": "Two-character abbreviation for the domain of the parent record(s). Null for comments collected on a general comments or additional information CRF page.",
                            "label": "Related Domain Abbreviation",
                            "name": "RDOMAIN",
                            "ordinal": "3",
                            "role": "Record Qualifier",
                            "simpleDatatype": "Char"
                        },
                        {
                            "_links": {
                                "modelDatasetVariable": {
                                    "href": "/mdr/sdtm/1-2/datasets/CO/variables/USUBJID",
                                    "title": "Unique Subject Identifier",
                                    "type": "SDTM Dataset Variable"
                                },
                                "parentDataset": {
                                    "href": "/mdr/sdtmig/3-1-2/datasets/CO",
                                    "title": "Comments",
                                    "type": "SDTM Dataset"
                                },
                                "parentProduct": {
                                    "href": "/mdr/sdtmig/3-1-2",
                                    "title": "Study Data Tabulation Model Implementation Guide: Human Clinical Trials Version 3.1.2 (Final)",
                                    "type": "Implementation Guide"
                                },
                                "rootItem": {
                                    "href": "/mdr/root/sdtmig/datasets/CO/variables/USUBJID",
                                    "title": "Version-agnostic anchor resource for SDTMIG variable CO.USUBJID",
                                    "type": "Root Data Element"
                                },
                                "self": {
                                    "href": "/mdr/sdtmig/3-1-2/datasets/CO/variables/USUBJID",
                                    "title": "Unique Subject Identifier",
                                    "type": "SDTM Dataset Variable"
                                }
                            },
                            "core": "Req",
                            "description": "Identifier used to uniquely identify a subject across all studies for all applications or submissions involving the product.",
                            "label": "Unique Subject Identifier",
                            "name": "USUBJID",
                            "ordinal": "4",
                            "role": "Identifier",
                            "simpleDatatype": "Char"
                        },
                        {
                            "_links": {
                                "modelDatasetVariable": {
                                    "href": "/mdr/sdtm/1-2/datasets/CO/variables/COSEQ",
                                    "title": "Sequence Number",
                                    "type": "SDTM Dataset Variable"
                                },
                                "parentDataset": {
                                    "href": "/mdr/sdtmig/3-1-2/datasets/CO",
                                    "title": "Comments",
                                    "type": "SDTM Dataset"
                                },
                                "parentProduct": {
                                    "href": "/mdr/sdtmig/3-1-2",
                                    "title": "Study Data Tabulation Model Implementation Guide: Human Clinical Trials Version 3.1.2 (Final)",
                                    "type": "Implementation Guide"
                                },
                                "rootItem": {
                                    "href": "/mdr/root/sdtmig/datasets/CO/variables/COSEQ",
                                    "title": "Version-agnostic anchor resource for SDTMIG variable CO.COSEQ",
                                    "type": "Root Data Element"
                                },
                                "self": {
                                    "href": "/mdr/sdtmig/3-1-2/datasets/CO/variables/COSEQ",
                                    "title": "Sequence Number",
                                    "type": "SDTM Dataset Variable"
                                }
                            },
                            "core": "Req",
                            "description": "Sequence Number given to ensure uniqueness of subject records within a domain. May be any valid number.",
                            "label": "Sequence Number",
                            "name": "COSEQ",
                            "ordinal": "5",
                            "role": "Identifier",
                            "simpleDatatype": "Num"
                        },
                        {
                            "_links": {
                                "modelDatasetVariable": {
                                    "href": "/mdr/sdtm/1-2/datasets/CO/variables/IDVAR",
                                    "title": "Identifying Variable",
                                    "type": "SDTM Dataset Variable"
                                },
                                "parentDataset": {
                                    "href": "/mdr/sdtmig/3-1-2/datasets/CO",
                                    "title": "Comments",
                                    "type": "SDTM Dataset"
                                },
                                "parentProduct": {
                                    "href": "/mdr/sdtmig/3-1-2",
                                    "title": "Study Data Tabulation Model Implementation Guide: Human Clinical Trials Version 3.1.2 (Final)",
                                    "type": "Implementation Guide"
                                },
                                "rootItem": {
                                    "href": "/mdr/root/sdtmig/datasets/CO/variables/IDVAR",
                                    "title": "Version-agnostic anchor resource for SDTMIG variable CO.IDVAR",
                                    "type": "Root Data Element"
                                },
                                "self": {
                                    "href": "/mdr/sdtmig/3-1-2/datasets/CO/variables/IDVAR",
                                    "title": "Identifying Variable",
                                    "type": "SDTM Dataset Variable"
                                }
                            },
                            "core": "Perm",
                            "description": "Identifying variable in the parent dataset that identifies the record(s) to which the comment applies. Examples AESEQ or CMGRPID. Used only when individual comments are related to domain records. Null for comments collected on separate CRFs.",
                            "label": "Identifying Variable",
                            "name": "IDVAR",
                            "ordinal": "6",
                            "role": "Record Qualifier",
                            "simpleDatatype": "Char"
                        },
                        {
                            "_links": {
                                "modelDatasetVariable": {
                                    "href": "/mdr/sdtm/1-2/datasets/CO/variables/IDVARVAL",
                                    "title": "Identifying Variable Value",
                                    "type": "SDTM Dataset Variable"
                                },
                                "parentDataset": {
                                    "href": "/mdr/sdtmig/3-1-2/datasets/CO",
                                    "title": "Comments",
                                    "type": "SDTM Dataset"
                                },
                                "parentProduct": {
                                    "href": "/mdr/sdtmig/3-1-2",
                                    "title": "Study Data Tabulation Model Implementation Guide: Human Clinical Trials Version 3.1.2 (Final)",
                                    "type": "Implementation Guide"
                                },
                                "rootItem": {
                                    "href": "/mdr/root/sdtmig/datasets/CO/variables/IDVARVAL",
                                    "title": "Version-agnostic anchor resource for SDTMIG variable CO.IDVARVAL",
                                    "type": "Root Data Element"
                                },
                                "self": {
                                    "href": "/mdr/sdtmig/3-1-2/datasets/CO/variables/IDVARVAL",
                                    "title": "Identifying Variable Value",
                                    "type": "SDTM Dataset Variable"
                                }
                            },
                            "core": "Perm",
                            "description": "Value of identifying variable of the parent record(s). Used only when individual comments are related to domain records. Null for comments collected on separate CRFs.",
                            "label": "Identifying Variable Value",
                            "name": "IDVARVAL",
                            "ordinal": "7",
                            "role": "Record Qualifier",
                            "simpleDatatype": "Char"
                        },
                        {
                            "_links": {
                                "modelDatasetVariable": {
                                    "href": "/mdr/sdtm/1-2/datasets/CO/variables/COREF",
                                    "title": "Comment Reference",
                                    "type": "SDTM Dataset Variable"
                                },
                                "parentDataset": {
                                    "href": "/mdr/sdtmig/3-1-2/datasets/CO",
                                    "title": "Comments",
                                    "type": "SDTM Dataset"
                                },
                                "parentProduct": {
                                    "href": "/mdr/sdtmig/3-1-2",
                                    "title": "Study Data Tabulation Model Implementation Guide: Human Clinical Trials Version 3.1.2 (Final)",
                                    "type": "Implementation Guide"
                                },
                                "rootItem": {
                                    "href": "/mdr/root/sdtmig/datasets/CO/variables/COREF",
                                    "title": "Version-agnostic anchor resource for SDTMIG variable CO.COREF",
                                    "type": "Root Data Element"
                                },
                                "self": {
                                    "href": "/mdr/sdtmig/3-1-2/datasets/CO/variables/COREF",
                                    "title": "Comment Reference",
                                    "type": "SDTM Dataset Variable"
                                }
                            },
                            "core": "Perm",
                            "description": "Sponsor-defined reference associated with the comment. May be the CRF page number (e.g. 650), or a module name (e.g. DEMOG), or a combination of information that identifies the reference (e.g. 650-VITALS-VISIT 2).",
                            "label": "Comment Reference",
                            "name": "COREF",
                            "ordinal": "8",
                            "role": "Record Qualifier",
                            "simpleDatatype": "Char"
                        },
                        {
                            "_links": {
                                "modelDatasetVariable": {
                                    "href": "/mdr/sdtm/1-2/datasets/CO/variables/COVAL",
                                    "title": "Comment",
                                    "type": "SDTM Dataset Variable"
                                },
                                "parentDataset": {
                                    "href": "/mdr/sdtmig/3-1-2/datasets/CO",
                                    "title": "Comments",
                                    "type": "SDTM Dataset"
                                },
                                "parentProduct": {
                                    "href": "/mdr/sdtmig/3-1-2",
                                    "title": "Study Data Tabulation Model Implementation Guide: Human Clinical Trials Version 3.1.2 (Final)",
                                    "type": "Implementation Guide"
                                },
                                "rootItem": {
                                    "href": "/mdr/root/sdtmig/datasets/CO/variables/COVAL",
                                    "title": "Version-agnostic anchor resource for SDTMIG variable CO.COVAL",
                                    "type": "Root Data Element"
                                },
                                "self": {
                                    "href": "/mdr/sdtmig/3-1-2/datasets/CO/variables/COVAL",
                                    "title": "Comment",
                                    "type": "SDTM Dataset Variable"
                                }
                            },
                            "core": "Req",
                            "description": "The text of the comment. Text over 200 characters can be added to additional columns COVAL1-COVALn. See assumption 5.2.1.1.3.",
                            "label": "Comment",
                            "name": "COVAL",
                            "ordinal": "9",
                            "role": "Topic",
                            "simpleDatatype": "Char"
                        },
                        {
                            "_links": {
                                "modelDatasetVariable": {
                                    "href": "/mdr/sdtm/1-2/datasets/CO/variables/COEVAL",
                                    "title": "Evaluator",
                                    "type": "SDTM Dataset Variable"
                                },
                                "parentDataset": {
                                    "href": "/mdr/sdtmig/3-1-2/datasets/CO",
                                    "title": "Comments",
                                    "type": "SDTM Dataset"
                                },
                                "parentProduct": {
                                    "href": "/mdr/sdtmig/3-1-2",
                                    "title": "Study Data Tabulation Model Implementation Guide: Human Clinical Trials Version 3.1.2 (Final)",
                                    "type": "Implementation Guide"
                                },
                                "rootItem": {
                                    "href": "/mdr/root/sdtmig/datasets/CO/variables/COEVAL",
                                    "title": "Version-agnostic anchor resource for SDTMIG variable CO.COEVAL",
                                    "type": "Root Data Element"
                                },
                                "self": {
                                    "href": "/mdr/sdtmig/3-1-2/datasets/CO/variables/COEVAL",
                                    "title": "Evaluator",
                                    "type": "SDTM Dataset Variable"
                                }
                            },
                            "core": "Perm",
                            "description": "Used to describe the originator of the comment. Examples: CENTRAL, REVIEWER, ADJUDICATION COMMITTEE, PRINCIPAL INVESTIGATOR.",
                            "label": "Evaluator",
                            "name": "COEVAL",
                            "ordinal": "10",
                            "role": "Record Qualifier",
                            "simpleDatatype": "Char"
                        },
                        {
                            "_links": {
                                "modelDatasetVariable": {
                                    "href": "/mdr/sdtm/1-2/datasets/CO/variables/CODTC",
                                    "title": "Date/Time of Comment",
                                    "type": "SDTM Dataset Variable"
                                },
                                "parentDataset": {
                                    "href": "/mdr/sdtmig/3-1-2/datasets/CO",
                                    "title": "Comments",
                                    "type": "SDTM Dataset"
                                },
                                "parentProduct": {
                                    "href": "/mdr/sdtmig/3-1-2",
                                    "title": "Study Data Tabulation Model Implementation Guide: Human Clinical Trials Version 3.1.2 (Final)",
                                    "type": "Implementation Guide"
                                },
                                "rootItem": {
                                    "href": "/mdr/root/sdtmig/datasets/CO/variables/CODTC",
                                    "title": "Version-agnostic anchor resource for SDTMIG variable CO.CODTC",
                                    "type": "Root Data Element"
                                },
                                "self": {
                                    "href": "/mdr/sdtmig/3-1-2/datasets/CO/variables/CODTC",
                                    "title": "Date/Time of Comment",
                                    "type": "SDTM Dataset Variable"
                                }
                            },
                            "core": "Perm",
                            "describedValueDomain": "ISO 8601",
                            "description": "Date/time of comment on dedicated comment form. Should be null if this is a child record of another domain or if comment date was not collected.",
                            "label": "Date/Time of Comment",
                            "name": "CODTC",
                            "ordinal": "11",
                            "role": "Timing",
                            "simpleDatatype": "Char"
                        }
                    ],
                    "description": "A special-purpose domain that contains comments that may be collected alongside other data. (Source: CDISC Controlled Terminology, DOMAIN, C49569, 2018-06-29)",
                    "label": "Comments",
                    "name": "CO",
                    "ordinal": "2"
                },
                {
                    "_links": {
                        "modelDataset": {
                            "href": "/mdr/sdtm/1-2/datasets/SE",
                            "title": "Subject Elements",
                            "type": "SDTM Dataset"
                        },
                        "parentClass": {
                            "href": "/mdr/sdtmig/3-1-2/classes/SpecialPurpose",
                            "title": "Special-Purpose Datasets",
                            "type": "Class"
                        },
                        "parentProduct": {
                            "href": "/mdr/sdtmig/3-1-2",
                            "title": "Study Data Tabulation Model Implementation Guide: Human Clinical Trials Version 3.1.2 (Final)",
                            "type": "Implementation Guide"
                        },
                        "self": {
                            "href": "/mdr/sdtmig/3-1-2/datasets/SE",
                            "title": "Subject Elements",
                            "type": "SDTM Dataset"
                        }
                    },
                    "datasetStructure": "One record per actual Element per subject",
                    "datasetVariables": [
                        {
                            "_links": {
                                "modelDatasetVariable": {
                                    "href": "/mdr/sdtm/1-2/datasets/SE/variables/STUDYID",
                                    "title": "Study Identifier",
                                    "type": "SDTM Dataset Variable"
                                },
                                "parentDataset": {
                                    "href": "/mdr/sdtmig/3-1-2/datasets/SE",
                                    "title": "Subject Elements",
                                    "type": "SDTM Dataset"
                                },
                                "parentProduct": {
                                    "href": "/mdr/sdtmig/3-1-2",
                                    "title": "Study Data Tabulation Model Implementation Guide: Human Clinical Trials Version 3.1.2 (Final)",
                                    "type": "Implementation Guide"
                                },
                                "rootItem": {
                                    "href": "/mdr/root/sdtmig/datasets/SE/variables/STUDYID",
                                    "title": "Version-agnostic anchor resource for SDTMIG variable SE.STUDYID",
                                    "type": "Root Data Element"
                                },
                                "self": {
                                    "href": "/mdr/sdtmig/3-1-2/datasets/SE/variables/STUDYID",
                                    "title": "Study Identifier",
                                    "type": "SDTM Dataset Variable"
                                }
                            },
                            "core": "Req",
                            "description": "Unique identifier for a study.",
                            "label": "Study Identifier",
                            "name": "STUDYID",
                            "ordinal": "1",
                            "role": "Identifier",
                            "simpleDatatype": "Char"
                        },
                        {
                            "_links": {
                                "modelDatasetVariable": {
                                    "href": "/mdr/sdtm/1-2/datasets/SE/variables/DOMAIN",
                                    "title": "Domain Abbreviation",
                                    "type": "SDTM Dataset Variable"
                                },
                                "parentDataset": {
                                    "href": "/mdr/sdtmig/3-1-2/datasets/SE",
                                    "title": "Subject Elements",
                                    "type": "SDTM Dataset"
                                },
                                "parentProduct": {
                                    "href": "/mdr/sdtmig/3-1-2",
                                    "title": "Study Data Tabulation Model Implementation Guide: Human Clinical Trials Version 3.1.2 (Final)",
                                    "type": "Implementation Guide"
                                },
                                "rootItem": {
                                    "href": "/mdr/root/sdtmig/datasets/SE/variables/DOMAIN",
                                    "title": "Version-agnostic anchor resource for SDTMIG variable SE.DOMAIN",
                                    "type": "Root Data Element"
                                },
                                "self": {
                                    "href": "/mdr/sdtmig/3-1-2/datasets/SE/variables/DOMAIN",
                                    "title": "Domain Abbreviation",
                                    "type": "SDTM Dataset Variable"
                                }
                            },
                            "core": "Req",
                            "description": "Two-character abbreviation for the domain.",
                            "label": "Domain Abbreviation",
                            "name": "DOMAIN",
                            "ordinal": "2",
                            "role": "Identifier",
                            "simpleDatatype": "Char",
                            "valueList": [
                                "SE"
                            ]
                        },
                        {
                            "_links": {
                                "modelDatasetVariable": {
                                    "href": "/mdr/sdtm/1-2/datasets/SE/variables/USUBJID",
                                    "title": "Unique Subject Identifier",
                                    "type": "SDTM Dataset Variable"
                                },
                                "parentDataset": {
                                    "href": "/mdr/sdtmig/3-1-2/datasets/SE",
                                    "title": "Subject Elements",
                                    "type": "SDTM Dataset"
                                },
                                "parentProduct": {
                                    "href": "/mdr/sdtmig/3-1-2",
                                    "title": "Study Data Tabulation Model Implementation Guide: Human Clinical Trials Version 3.1.2 (Final)",
                                    "type": "Implementation Guide"
                                },
                                "rootItem": {
                                    "href": "/mdr/root/sdtmig/datasets/SE/variables/USUBJID",
                                    "title": "Version-agnostic anchor resource for SDTMIG variable SE.USUBJID",
                                    "type": "Root Data Element"
                                },
                                "self": {
                                    "href": "/mdr/sdtmig/3-1-2/datasets/SE/variables/USUBJID",
                                    "title": "Unique Subject Identifier",
                                    "type": "SDTM Dataset Variable"
                                }
                            },
                            "core": "Req",
                            "description": "Identifier used to uniquely identify a subject across all studies for all applications or submissions involving the product.",
                            "label": "Unique Subject Identifier",
                            "name": "USUBJID",
                            "ordinal": "3",
                            "role": "Identifier",
                            "simpleDatatype": "Char"
                        },
                        {
                            "_links": {
                                "modelDatasetVariable": {
                                    "href": "/mdr/sdtm/1-2/datasets/SE/variables/SESEQ",
                                    "title": "Sequence Number",
                                    "type": "SDTM Dataset Variable"
                                },
                                "parentDataset": {
                                    "href": "/mdr/sdtmig/3-1-2/datasets/SE",
                                    "title": "Subject Elements",
                                    "type": "SDTM Dataset"
                                },
                                "parentProduct": {
                                    "href": "/mdr/sdtmig/3-1-2",
                                    "title": "Study Data Tabulation Model Implementation Guide: Human Clinical Trials Version 3.1.2 (Final)",
                                    "type": "Implementation Guide"
                                },
                                "rootItem": {
                                    "href": "/mdr/root/sdtmig/datasets/SE/variables/SESEQ",
                                    "title": "Version-agnostic anchor resource for SDTMIG variable SE.SESEQ",
                                    "type": "Root Data Element"
                                },
                                "self": {
                                    "href": "/mdr/sdtmig/3-1-2/datasets/SE/variables/SESEQ",
                                    "title": "Sequence Number",
                                    "type": "SDTM Dataset Variable"
                                }
                            },
                            "core": "Req",
                            "description": "Sequence Number given to ensure uniqueness of subject records within a domain. Should be assigned to be consistent chronological order.",
                            "label": "Sequence Number",
                            "name": "SESEQ",
                            "ordinal": "4",
                            "role": "Identifier",
                            "simpleDatatype": "Num"
                        },
                        {
                            "_links": {
                                "modelDatasetVariable": {
                                    "href": "/mdr/sdtm/1-2/datasets/SE/variables/ETCD",
                                    "title": "Subject Element Code",
                                    "type": "SDTM Dataset Variable"
                                },
                                "parentDataset": {
                                    "href": "/mdr/sdtmig/3-1-2/datasets/SE",
                                    "title": "Subject Elements",
                                    "type": "SDTM Dataset"
                                },
                                "parentProduct": {
                                    "href": "/mdr/sdtmig/3-1-2",
                                    "title": "Study Data Tabulation Model Implementation Guide: Human Clinical Trials Version 3.1.2 (Final)",
                                    "type": "Implementation Guide"
                                },
                                "rootItem": {
                                    "href": "/mdr/root/sdtmig/datasets/SE/variables/ETCD",
                                    "title": "Version-agnostic anchor resource for SDTMIG variable SE.ETCD",
                                    "type": "Root Data Element"
                                },
                                "self": {
                                    "href": "/mdr/sdtmig/3-1-2/datasets/SE/variables/ETCD",
                                    "title": "Element Code",
                                    "type": "SDTM Dataset Variable"
                                }
                            },
                            "core": "Req",
                            "description": "1. ETCD (the companion to ELEMENT) is limited to 8 characters and does not have special character restrictions. These values should be short for ease of use in programming, but it is not expected that ETCD will need to serve as a variable name. 2. If an encountered Element differs from the planned Element to the point that it is considered a new Element, then use \"UNPLAN\" as the value for ETCD to represent this Element.",
                            "label": "Element Code",
                            "name": "ETCD",
                            "ordinal": "5",
                            "role": "Topic",
                            "simpleDatatype": "Char"
                        },
                        {
                            "_links": {
                                "modelDatasetVariable": {
                                    "href": "/mdr/sdtm/1-2/datasets/SE/variables/ELEMENT",
                                    "title": "Description of Subject Element",
                                    "type": "SDTM Dataset Variable"
                                },
                                "parentDataset": {
                                    "href": "/mdr/sdtmig/3-1-2/datasets/SE",
                                    "title": "Subject Elements",
                                    "type": "SDTM Dataset"
                                },
                                "parentProduct": {
                                    "href": "/mdr/sdtmig/3-1-2",
                                    "title": "Study Data Tabulation Model Implementation Guide: Human Clinical Trials Version 3.1.2 (Final)",
                                    "type": "Implementation Guide"
                                },
                                "rootItem": {
                                    "href": "/mdr/root/sdtmig/datasets/SE/variables/ELEMENT",
                                    "title": "Version-agnostic anchor resource for SDTMIG variable SE.ELEMENT",
                                    "type": "Root Data Element"
                                },
                                "self": {
                                    "href": "/mdr/sdtmig/3-1-2/datasets/SE/variables/ELEMENT",
                                    "title": "Description of Element",
                                    "type": "SDTM Dataset Variable"
                                }
                            },
                            "core": "Perm",
                            "description": "The name of the Element. If ETCD has a value of \"UNPLAN\" then ELEMENT should be Null.",
                            "label": "Description of Element",
                            "name": "ELEMENT",
                            "ordinal": "6",
                            "role": "Synonym Qualifier",
                            "simpleDatatype": "Char"
                        },
                        {
                            "_links": {
                                "modelDatasetVariable": {
                                    "href": "/mdr/sdtm/1-2/datasets/SE/variables/SESTDTC",
                                    "title": "Start Date/Time of Element",
                                    "type": "SDTM Dataset Variable"
                                },
                                "parentDataset": {
                                    "href": "/mdr/sdtmig/3-1-2/datasets/SE",
                                    "title": "Subject Elements",
                                    "type": "SDTM Dataset"
                                },
                                "parentProduct": {
                                    "href": "/mdr/sdtmig/3-1-2",
                                    "title": "Study Data Tabulation Model Implementation Guide: Human Clinical Trials Version 3.1.2 (Final)",
                                    "type": "Implementation Guide"
                                },
                                "rootItem": {
                                    "href": "/mdr/root/sdtmig/datasets/SE/variables/SESTDTC",
                                    "title": "Version-agnostic anchor resource for SDTMIG variable SE.SESTDTC",
                                    "type": "Root Data Element"
                                },
                                "self": {
                                    "href": "/mdr/sdtmig/3-1-2/datasets/SE/variables/SESTDTC",
                                    "title": "Start Date/Time of Element",
                                    "type": "SDTM Dataset Variable"
                                }
                            },
                            "core": "Req",
                            "describedValueDomain": "ISO 8601",
                            "description": "Start date/time for an Element for each subject.",
                            "label": "Start Date/Time of Element",
                            "name": "SESTDTC",
                            "ordinal": "7",
                            "role": "Timing",
                            "simpleDatatype": "Char"
                        },
                        {
                            "_links": {
                                "modelDatasetVariable": {
                                    "href": "/mdr/sdtm/1-2/datasets/SE/variables/SEENDTC",
                                    "title": "End Date/Time of Element",
                                    "type": "SDTM Dataset Variable"
                                },
                                "parentDataset": {
                                    "href": "/mdr/sdtmig/3-1-2/datasets/SE",
                                    "title": "Subject Elements",
                                    "type": "SDTM Dataset"
                                },
                                "parentProduct": {
                                    "href": "/mdr/sdtmig/3-1-2",
                                    "title": "Study Data Tabulation Model Implementation Guide: Human Clinical Trials Version 3.1.2 (Final)",
                                    "type": "Implementation Guide"
                                },
                                "rootItem": {
                                    "href": "/mdr/root/sdtmig/datasets/SE/variables/SEENDTC",
                                    "title": "Version-agnostic anchor resource for SDTMIG variable SE.SEENDTC",
                                    "type": "Root Data Element"
                                },
                                "self": {
                                    "href": "/mdr/sdtmig/3-1-2/datasets/SE/variables/SEENDTC",
                                    "title": "End Date/Time of Element",
                                    "type": "SDTM Dataset Variable"
                                }
                            },
                            "core": "Exp",
                            "describedValueDomain": "ISO 8601",
                            "description": "End date/time for an Element for each subject.",
                            "label": "End Date/Time of Element",
                            "name": "SEENDTC",
                            "ordinal": "8",
                            "role": "Timing",
                            "simpleDatatype": "Char"
                        },
                        {
                            "_links": {
                                "modelDatasetVariable": {
                                    "href": "/mdr/sdtm/1-2/datasets/SE/variables/TAETORD",
                                    "title": "Planned Order of Elements within Arm",
                                    "type": "SDTM Dataset Variable"
                                },
                                "parentDataset": {
                                    "href": "/mdr/sdtmig/3-1-2/datasets/SE",
                                    "title": "Subject Elements",
                                    "type": "SDTM Dataset"
                                },
                                "parentProduct": {
                                    "href": "/mdr/sdtmig/3-1-2",
                                    "title": "Study Data Tabulation Model Implementation Guide: Human Clinical Trials Version 3.1.2 (Final)",
                                    "type": "Implementation Guide"
                                },
                                "rootItem": {
                                    "href": "/mdr/root/sdtmig/datasets/SE/variables/TAETORD",
                                    "title": "Version-agnostic anchor resource for SDTMIG variable SE.TAETORD",
                                    "type": "Root Data Element"
                                },
                                "self": {
                                    "href": "/mdr/sdtmig/3-1-2/datasets/SE/variables/TAETORD",
                                    "title": "Planned Order of Elements within Arm",
                                    "type": "SDTM Dataset Variable"
                                }
                            },
                            "core": "Perm",
                            "description": "Number that gives the planned order of the Element within the subject's assigned ARM.",
                            "label": "Planned Order of Elements within Arm",
                            "name": "TAETORD",
                            "ordinal": "9",
                            "role": "Timing",
                            "simpleDatatype": "Num"
                        },
                        {
                            "_links": {
                                "modelDatasetVariable": {
                                    "href": "/mdr/sdtm/1-2/datasets/SE/variables/EPOCH",
                                    "title": "Epoch",
                                    "type": "SDTM Dataset Variable"
                                },
                                "parentDataset": {
                                    "href": "/mdr/sdtmig/3-1-2/datasets/SE",
                                    "title": "Subject Elements",
                                    "type": "SDTM Dataset"
                                },
                                "parentProduct": {
                                    "href": "/mdr/sdtmig/3-1-2",
                                    "title": "Study Data Tabulation Model Implementation Guide: Human Clinical Trials Version 3.1.2 (Final)",
                                    "type": "Implementation Guide"
                                },
                                "rootItem": {
                                    "href": "/mdr/root/sdtmig/datasets/SE/variables/EPOCH",
                                    "title": "Version-agnostic anchor resource for SDTMIG variable SE.EPOCH",
                                    "type": "Root Data Element"
                                },
                                "self": {
                                    "href": "/mdr/sdtmig/3-1-2/datasets/SE/variables/EPOCH",
                                    "title": "Epoch",
                                    "type": "SDTM Dataset Variable"
                                }
                            },
                            "core": "Perm",
                            "description": "Epoch associated with the Element in the planned sequence of Elements for the ARM to which the subject was assigned",
                            "label": "Epoch",
                            "name": "EPOCH",
                            "ordinal": "10",
                            "role": "Timing",
                            "simpleDatatype": "Char"
                        },
                        {
                            "_links": {
                                "modelDatasetVariable": {
                                    "href": "/mdr/sdtm/1-2/datasets/SE/variables/SEUPDES",
                                    "title": "Description of Unplanned Element",
                                    "type": "SDTM Dataset Variable"
                                },
                                "parentDataset": {
                                    "href": "/mdr/sdtmig/3-1-2/datasets/SE",
                                    "title": "Subject Elements",
                                    "type": "SDTM Dataset"
                                },
                                "parentProduct": {
                                    "href": "/mdr/sdtmig/3-1-2",
                                    "title": "Study Data Tabulation Model Implementation Guide: Human Clinical Trials Version 3.1.2 (Final)",
                                    "type": "Implementation Guide"
                                },
                                "rootItem": {
                                    "href": "/mdr/root/sdtmig/datasets/SE/variables/SEUPDES",
                                    "title": "Version-agnostic anchor resource for SDTMIG variable SE.SEUPDES",
                                    "type": "Root Data Element"
                                },
                                "self": {
                                    "href": "/mdr/sdtmig/3-1-2/datasets/SE/variables/SEUPDES",
                                    "title": "Description of Unplanned Element",
                                    "type": "SDTM Dataset Variable"
                                }
                            },
                            "core": "Perm",
                            "description": "Description of what happened to the subject during this unplanned Element. Used only if ETCD has the value of \"UNPLAN\".",
                            "label": "Description of Unplanned Element",
                            "name": "SEUPDES",
                            "ordinal": "11",
                            "role": "Synonym Qualifier",
                            "simpleDatatype": "Char"
                        }
                    ],
                    "description": "A special-purpose domain that contains the actual order of elements followed by the subject, together with the start date/time and end date/time for each element. (Source: CDISC Controlled Terminology, DOMAIN, C49616, 2018-06-29)",
                    "label": "Subject Elements",
                    "name": "SE",
                    "ordinal": "3"
                },
                {
                    "_links": {
                        "modelDataset": {
                            "href": "/mdr/sdtm/1-2/datasets/SV",
                            "title": "Subject Visits",
                            "type": "SDTM Dataset"
                        },
                        "parentClass": {
                            "href": "/mdr/sdtmig/3-1-2/classes/SpecialPurpose",
                            "title": "Special-Purpose Datasets",
                            "type": "Class"
                        },
                        "parentProduct": {
                            "href": "/mdr/sdtmig/3-1-2",
                            "title": "Study Data Tabulation Model Implementation Guide: Human Clinical Trials Version 3.1.2 (Final)",
                            "type": "Implementation Guide"
                        },
                        "self": {
                            "href": "/mdr/sdtmig/3-1-2/datasets/SV",
                            "title": "Subject Visits",
                            "type": "SDTM Dataset"
                        }
                    },
                    "datasetStructure": "One record per subject per actual visit",
                    "datasetVariables": [
                        {
                            "_links": {
                                "modelDatasetVariable": {
                                    "href": "/mdr/sdtm/1-2/datasets/SV/variables/STUDYID",
                                    "title": "Study Identifier",
                                    "type": "SDTM Dataset Variable"
                                },
                                "parentDataset": {
                                    "href": "/mdr/sdtmig/3-1-2/datasets/SV",
                                    "title": "Subject Visits",
                                    "type": "SDTM Dataset"
                                },
                                "parentProduct": {
                                    "href": "/mdr/sdtmig/3-1-2",
                                    "title": "Study Data Tabulation Model Implementation Guide: Human Clinical Trials Version 3.1.2 (Final)",
                                    "type": "Implementation Guide"
                                },
                                "rootItem": {
                                    "href": "/mdr/root/sdtmig/datasets/SV/variables/STUDYID",
                                    "title": "Version-agnostic anchor resource for SDTMIG variable SV.STUDYID",
                                    "type": "Root Data Element"
                                },
                                "self": {
                                    "href": "/mdr/sdtmig/3-1-2/datasets/SV/variables/STUDYID",
                                    "title": "Study Identifier",
                                    "type": "SDTM Dataset Variable"
                                }
                            },
                            "core": "Req",
                            "description": "Unique identifier for a study.",
                            "label": "Study Identifier",
                            "name": "STUDYID",
                            "ordinal": "1",
                            "role": "Identifier",
                            "simpleDatatype": "Char"
                        },
                        {
                            "_links": {
                                "modelDatasetVariable": {
                                    "href": "/mdr/sdtm/1-2/datasets/SV/variables/DOMAIN",
                                    "title": "Domain Abbreviation",
                                    "type": "SDTM Dataset Variable"
                                },
                                "parentDataset": {
                                    "href": "/mdr/sdtmig/3-1-2/datasets/SV",
                                    "title": "Subject Visits",
                                    "type": "SDTM Dataset"
                                },
                                "parentProduct": {
                                    "href": "/mdr/sdtmig/3-1-2",
                                    "title": "Study Data Tabulation Model Implementation Guide: Human Clinical Trials Version 3.1.2 (Final)",
                                    "type": "Implementation Guide"
                                },
                                "rootItem": {
                                    "href": "/mdr/root/sdtmig/datasets/SV/variables/DOMAIN",
                                    "title": "Version-agnostic anchor resource for SDTMIG variable SV.DOMAIN",
                                    "type": "Root Data Element"
                                },
                                "self": {
                                    "href": "/mdr/sdtmig/3-1-2/datasets/SV/variables/DOMAIN",
                                    "title": "Domain Abbreviation",
                                    "type": "SDTM Dataset Variable"
                                }
                            },
                            "core": "Req",
                            "description": "Two-character abbreviation for the domain.",
                            "label": "Domain Abbreviation",
                            "name": "DOMAIN",
                            "ordinal": "2",
                            "role": "Identifier",
                            "simpleDatatype": "Char",
                            "valueList": [
                                "SV"
                            ]
                        },
                        {
                            "_links": {
                                "modelDatasetVariable": {
                                    "href": "/mdr/sdtm/1-2/datasets/SV/variables/USUBJID",
                                    "title": "Unique Subject Identifier",
                                    "type": "SDTM Dataset Variable"
                                },
                                "parentDataset": {
                                    "href": "/mdr/sdtmig/3-1-2/datasets/SV",
                                    "title": "Subject Visits",
                                    "type": "SDTM Dataset"
                                },
                                "parentProduct": {
                                    "href": "/mdr/sdtmig/3-1-2",
                                    "title": "Study Data Tabulation Model Implementation Guide: Human Clinical Trials Version 3.1.2 (Final)",
                                    "type": "Implementation Guide"
                                },
                                "rootItem": {
                                    "href": "/mdr/root/sdtmig/datasets/SV/variables/USUBJID",
                                    "title": "Version-agnostic anchor resource for SDTMIG variable SV.USUBJID",
                                    "type": "Root Data Element"
                                },
                                "self": {
                                    "href": "/mdr/sdtmig/3-1-2/datasets/SV/variables/USUBJID",
                                    "title": "Unique Subject Identifier",
                                    "type": "SDTM Dataset Variable"
                                }
                            },
                            "core": "Req",
                            "description": "Identifier used to uniquely identify a subject across all studies for all applications or submissions involving the product.",
                            "label": "Unique Subject Identifier",
                            "name": "USUBJID",
                            "ordinal": "3",
                            "role": "Identifier",
                            "simpleDatatype": "Char"
                        },
                        {
                            "_links": {
                                "modelDatasetVariable": {
                                    "href": "/mdr/sdtm/1-2/datasets/SV/variables/VISITNUM",
                                    "title": "Visit Number",
                                    "type": "SDTM Dataset Variable"
                                },
                                "parentDataset": {
                                    "href": "/mdr/sdtmig/3-1-2/datasets/SV",
                                    "title": "Subject Visits",
                                    "type": "SDTM Dataset"
                                },
                                "parentProduct": {
                                    "href": "/mdr/sdtmig/3-1-2",
                                    "title": "Study Data Tabulation Model Implementation Guide: Human Clinical Trials Version 3.1.2 (Final)",
                                    "type": "Implementation Guide"
                                },
                                "rootItem": {
                                    "href": "/mdr/root/sdtmig/datasets/SV/variables/VISITNUM",
                                    "title": "Version-agnostic anchor resource for SDTMIG variable SV.VISITNUM",
                                    "type": "Root Data Element"
                                },
                                "self": {
                                    "href": "/mdr/sdtmig/3-1-2/datasets/SV/variables/VISITNUM",
                                    "title": "Visit Number",
                                    "type": "SDTM Dataset Variable"
                                }
                            },
                            "core": "Req",
                            "description": "1. Clinical encounter number. (Decimal numbering may be useful for inserting unplanned visits.) 2. Numeric version of VISIT, used for sorting.",
                            "label": "Visit Number",
                            "name": "VISITNUM",
                            "ordinal": "4",
                            "role": "Topic",
                            "simpleDatatype": "Num"
                        },
                        {
                            "_links": {
                                "modelDatasetVariable": {
                                    "href": "/mdr/sdtm/1-2/datasets/SV/variables/VISIT",
                                    "title": "Visit Name",
                                    "type": "SDTM Dataset Variable"
                                },
                                "parentDataset": {
                                    "href": "/mdr/sdtmig/3-1-2/datasets/SV",
                                    "title": "Subject Visits",
                                    "type": "SDTM Dataset"
                                },
                                "parentProduct": {
                                    "href": "/mdr/sdtmig/3-1-2",
                                    "title": "Study Data Tabulation Model Implementation Guide: Human Clinical Trials Version 3.1.2 (Final)",
                                    "type": "Implementation Guide"
                                },
                                "rootItem": {
                                    "href": "/mdr/root/sdtmig/datasets/SV/variables/VISIT",
                                    "title": "Version-agnostic anchor resource for SDTMIG variable SV.VISIT",
                                    "type": "Root Data Element"
                                },
                                "self": {
                                    "href": "/mdr/sdtmig/3-1-2/datasets/SV/variables/VISIT",
                                    "title": "Visit Name",
                                    "type": "SDTM Dataset Variable"
                                }
                            },
                            "core": "Perm",
                            "description": "1. Protocol-defined description of clinical encounter. 2. May be used in addition to VISITNUM and/or VISITDY as a text description of the clinical encounter.",
                            "label": "Visit Name",
                            "name": "VISIT",
                            "ordinal": "5",
                            "role": "Synonym Qualifier",
                            "simpleDatatype": "Char"
                        },
                        {
                            "_links": {
                                "modelDatasetVariable": {
                                    "href": "/mdr/sdtm/1-2/datasets/SV/variables/VISITDY",
                                    "title": "Planned Study Day of Visit",
                                    "type": "SDTM Dataset Variable"
                                },
                                "parentDataset": {
                                    "href": "/mdr/sdtmig/3-1-2/datasets/SV",
                                    "title": "Subject Visits",
                                    "type": "SDTM Dataset"
                                },
                                "parentProduct": {
                                    "href": "/mdr/sdtmig/3-1-2",
                                    "title": "Study Data Tabulation Model Implementation Guide: Human Clinical Trials Version 3.1.2 (Final)",
                                    "type": "Implementation Guide"
                                },
                                "rootItem": {
                                    "href": "/mdr/root/sdtmig/datasets/SV/variables/VISITDY",
                                    "title": "Version-agnostic anchor resource for SDTMIG variable SV.VISITDY",
                                    "type": "Root Data Element"
                                },
                                "self": {
                                    "href": "/mdr/sdtmig/3-1-2/datasets/SV/variables/VISITDY",
                                    "title": "Planned Study Day of Visit",
                                    "type": "SDTM Dataset Variable"
                                }
                            },
                            "core": "Perm",
                            "description": "Planned study day of the start of the visit based upon RFSTDTC in Demographics.",
                            "label": "Planned Study Day of Visit",
                            "name": "VISITDY",
                            "ordinal": "6",
                            "role": "Timing",
                            "simpleDatatype": "Num"
                        },
                        {
                            "_links": {
                                "modelDatasetVariable": {
                                    "href": "/mdr/sdtm/1-2/datasets/SV/variables/SVSTDTC",
                                    "title": "Start Date/Time of Visit",
                                    "type": "SDTM Dataset Variable"
                                },
                                "parentDataset": {
                                    "href": "/mdr/sdtmig/3-1-2/datasets/SV",
                                    "title": "Subject Visits",
                                    "type": "SDTM Dataset"
                                },
                                "parentProduct": {
                                    "href": "/mdr/sdtmig/3-1-2",
                                    "title": "Study Data Tabulation Model Implementation Guide: Human Clinical Trials Version 3.1.2 (Final)",
                                    "type": "Implementation Guide"
                                },
                                "rootItem": {
                                    "href": "/mdr/root/sdtmig/datasets/SV/variables/SVSTDTC",
                                    "title": "Version-agnostic anchor resource for SDTMIG variable SV.SVSTDTC",
                                    "type": "Root Data Element"
                                },
                                "self": {
                                    "href": "/mdr/sdtmig/3-1-2/datasets/SV/variables/SVSTDTC",
                                    "title": "Start Date/Time of Visit",
                                    "type": "SDTM Dataset Variable"
                                }
                            },
                            "core": "Exp",
                            "describedValueDomain": "ISO 8601",
                            "description": "Start date/time for a Visit.",
                            "label": "Start Date/Time of Visit",
                            "name": "SVSTDTC",
                            "ordinal": "7",
                            "role": "Timing",
                            "simpleDatatype": "Char"
                        },
                        {
                            "_links": {
                                "modelDatasetVariable": {
                                    "href": "/mdr/sdtm/1-2/datasets/SV/variables/SVENDTC",
                                    "title": "End Date/Time of Visit",
                                    "type": "SDTM Dataset Variable"
                                },
                                "parentDataset": {
                                    "href": "/mdr/sdtmig/3-1-2/datasets/SV",
                                    "title": "Subject Visits",
                                    "type": "SDTM Dataset"
                                },
                                "parentProduct": {
                                    "href": "/mdr/sdtmig/3-1-2",
                                    "title": "Study Data Tabulation Model Implementation Guide: Human Clinical Trials Version 3.1.2 (Final)",
                                    "type": "Implementation Guide"
                                },
                                "rootItem": {
                                    "href": "/mdr/root/sdtmig/datasets/SV/variables/SVENDTC",
                                    "title": "Version-agnostic anchor resource for SDTMIG variable SV.SVENDTC",
                                    "type": "Root Data Element"
                                },
                                "self": {
                                    "href": "/mdr/sdtmig/3-1-2/datasets/SV/variables/SVENDTC",
                                    "title": "End Date/Time of Visit",
                                    "type": "SDTM Dataset Variable"
                                }
                            },
                            "core": "Exp",
                            "describedValueDomain": "ISO 8601",
                            "description": "End date/time of a Visit.",
                            "label": "End Date/Time of Visit",
                            "name": "SVENDTC",
                            "ordinal": "8",
                            "role": "Timing",
                            "simpleDatatype": "Char"
                        },
                        {
                            "_links": {
                                "modelDatasetVariable": {
                                    "href": "/mdr/sdtm/1-2/datasets/SV/variables/SVSTDY",
                                    "title": "Study Day of Start of Visit",
                                    "type": "SDTM Dataset Variable"
                                },
                                "parentDataset": {
                                    "href": "/mdr/sdtmig/3-1-2/datasets/SV",
                                    "title": "Subject Visits",
                                    "type": "SDTM Dataset"
                                },
                                "parentProduct": {
                                    "href": "/mdr/sdtmig/3-1-2",
                                    "title": "Study Data Tabulation Model Implementation Guide: Human Clinical Trials Version 3.1.2 (Final)",
                                    "type": "Implementation Guide"
                                },
                                "rootItem": {
                                    "href": "/mdr/root/sdtmig/datasets/SV/variables/SVSTDY",
                                    "title": "Version-agnostic anchor resource for SDTMIG variable SV.SVSTDY",
                                    "type": "Root Data Element"
                                },
                                "self": {
                                    "href": "/mdr/sdtmig/3-1-2/datasets/SV/variables/SVSTDY",
                                    "title": "Study Day of Start of Visit",
                                    "type": "SDTM Dataset Variable"
                                }
                            },
                            "core": "Perm",
                            "description": "Study day of start of visit relative to the sponsor-defined RFSTDTC.",
                            "label": "Study Day of Start of Visit",
                            "name": "SVSTDY",
                            "ordinal": "9",
                            "role": "Timing",
                            "simpleDatatype": "Num"
                        },
                        {
                            "_links": {
                                "modelDatasetVariable": {
                                    "href": "/mdr/sdtm/1-2/datasets/SV/variables/SVENDY",
                                    "title": "Study Day of End of Visit",
                                    "type": "SDTM Dataset Variable"
                                },
                                "parentDataset": {
                                    "href": "/mdr/sdtmig/3-1-2/datasets/SV",
                                    "title": "Subject Visits",
                                    "type": "SDTM Dataset"
                                },
                                "parentProduct": {
                                    "href": "/mdr/sdtmig/3-1-2",
                                    "title": "Study Data Tabulation Model Implementation Guide: Human Clinical Trials Version 3.1.2 (Final)",
                                    "type": "Implementation Guide"
                                },
                                "rootItem": {
                                    "href": "/mdr/root/sdtmig/datasets/SV/variables/SVENDY",
                                    "title": "Version-agnostic anchor resource for SDTMIG variable SV.SVENDY",
                                    "type": "Root Data Element"
                                },
                                "self": {
                                    "href": "/mdr/sdtmig/3-1-2/datasets/SV/variables/SVENDY",
                                    "title": "Study Day of End of Visit",
                                    "type": "SDTM Dataset Variable"
                                }
                            },
                            "core": "Perm",
                            "description": "Study day of end of visit relative to the sponsor-defined RFSTDTC.",
                            "label": "Study Day of End of Visit",
                            "name": "SVENDY",
                            "ordinal": "10",
                            "role": "Timing",
                            "simpleDatatype": "Num"
                        },
                        {
                            "_links": {
                                "modelDatasetVariable": {
                                    "href": "/mdr/sdtm/1-2/datasets/SV/variables/SVUPDES",
                                    "title": "Description of Unplanned Visit",
                                    "type": "SDTM Dataset Variable"
                                },
                                "parentDataset": {
                                    "href": "/mdr/sdtmig/3-1-2/datasets/SV",
                                    "title": "Subject Visits",
                                    "type": "SDTM Dataset"
                                },
                                "parentProduct": {
                                    "href": "/mdr/sdtmig/3-1-2",
                                    "title": "Study Data Tabulation Model Implementation Guide: Human Clinical Trials Version 3.1.2 (Final)",
                                    "type": "Implementation Guide"
                                },
                                "rootItem": {
                                    "href": "/mdr/root/sdtmig/datasets/SV/variables/SVUPDES",
                                    "title": "Version-agnostic anchor resource for SDTMIG variable SV.SVUPDES",
                                    "type": "Root Data Element"
                                },
                                "self": {
                                    "href": "/mdr/sdtmig/3-1-2/datasets/SV/variables/SVUPDES",
                                    "title": "Description of Unplanned Visit",
                                    "type": "SDTM Dataset Variable"
                                }
                            },
                            "core": "Perm",
                            "description": "Description of what happened to the subject during an unplanned visit.",
                            "label": "Description of Unplanned Visit",
                            "name": "SVUPDES",
                            "ordinal": "11",
                            "role": "Synonym Qualifier",
                            "simpleDatatype": "Char"
                        }
                    ],
                    "description": "A special-purpose domain that contains the actual start and end data/time for each visit of each individual subject. (Source: CDISC Controlled Terminology, DOMAIN, C49617, 2018-06-29)",
                    "label": "Subject Visits",
                    "name": "SV",
                    "ordinal": "4"
                }
            ],
            "description": "This SDTM class contains a set of domains which do not conform to the Findings, Events or Interventions observation classes. The domains included are DM, CO, SE and SV. (Source: CDISC Controlled Terminology, GNRLOBSC, C103377, 2018-06-29)",
            "label": "Special-Purpose Datasets",
            "name": "Special-Purpose",
            "ordinal": "2"
        },
        {
            "_links": {
                "modelClass": {
                    "href": "/mdr/sdtm/1-2/classes/Interventions",
                    "title": "Interventions Observation Class",
                    "type": "Class"
                },
                "parentClass": {
                    "href": "/mdr/sdtmig/3-1-2/classes/GeneralObservations",
                    "title": "General Observation Class",
                    "type": "Class"
                },
                "parentProduct": {
                    "href": "/mdr/sdtmig/3-1-2",
                    "title": "Study Data Tabulation Model Implementation Guide: Human Clinical Trials Version 3.1.2 (Final)",
                    "type": "Implementation Guide"
                },
                "self": {
                    "href": "/mdr/sdtmig/3-1-2/classes/Interventions",
                    "title": "Interventions Observation Class",
                    "type": "Class"
                }
            },
            "datasets": [
                {
                    "_links": {
                        "parentClass": {
                            "href": "/mdr/sdtmig/3-1-2/classes/Interventions",
                            "title": "Interventions Observation Class",
                            "type": "Class"
                        },
                        "parentProduct": {
                            "href": "/mdr/sdtmig/3-1-2",
                            "title": "Study Data Tabulation Model Implementation Guide: Human Clinical Trials Version 3.1.2 (Final)",
                            "type": "Implementation Guide"
                        },
                        "self": {
                            "href": "/mdr/sdtmig/3-1-2/datasets/CM",
                            "title": "Concomitant Medications",
                            "type": "SDTM Dataset"
                        }
                    },
                    "datasetStructure": "One record per recorded intervention occurrence or constant-dosing interval per subject",
                    "datasetVariables": [
                        {
                            "_links": {
                                "modelClassVariable": {
                                    "href": "/mdr/sdtm/1-2/classes/GeneralObservations/variables/STUDYID",
                                    "title": "Study Identifier",
                                    "type": "Class Variable"
                                },
                                "parentDataset": {
                                    "href": "/mdr/sdtmig/3-1-2/datasets/CM",
                                    "title": "Concomitant Medications",
                                    "type": "SDTM Dataset"
                                },
                                "parentProduct": {
                                    "href": "/mdr/sdtmig/3-1-2",
                                    "title": "Study Data Tabulation Model Implementation Guide: Human Clinical Trials Version 3.1.2 (Final)",
                                    "type": "Implementation Guide"
                                },
                                "rootItem": {
                                    "href": "/mdr/root/sdtmig/datasets/CM/variables/STUDYID",
                                    "title": "Version-agnostic anchor resource for SDTMIG variable CM.STUDYID",
                                    "type": "Root Data Element"
                                },
                                "self": {
                                    "href": "/mdr/sdtmig/3-1-2/datasets/CM/variables/STUDYID",
                                    "title": "Study Identifier",
                                    "type": "SDTM Dataset Variable"
                                }
                            },
                            "core": "Req",
                            "description": "Unique identifier for a study.",
                            "label": "Study Identifier",
                            "name": "STUDYID",
                            "ordinal": "1",
                            "role": "Identifier",
                            "simpleDatatype": "Char"
                        },
                        {
                            "_links": {
                                "modelClassVariable": {
                                    "href": "/mdr/sdtm/1-2/classes/GeneralObservations/variables/DOMAIN",
                                    "title": "Domain Abbreviation",
                                    "type": "Class Variable"
                                },
                                "parentDataset": {
                                    "href": "/mdr/sdtmig/3-1-2/datasets/CM",
                                    "title": "Concomitant Medications",
                                    "type": "SDTM Dataset"
                                },
                                "parentProduct": {
                                    "href": "/mdr/sdtmig/3-1-2",
                                    "title": "Study Data Tabulation Model Implementation Guide: Human Clinical Trials Version 3.1.2 (Final)",
                                    "type": "Implementation Guide"
                                },
                                "rootItem": {
                                    "href": "/mdr/root/sdtmig/datasets/CM/variables/DOMAIN",
                                    "title": "Version-agnostic anchor resource for SDTMIG variable CM.DOMAIN",
                                    "type": "Root Data Element"
                                },
                                "self": {
                                    "href": "/mdr/sdtmig/3-1-2/datasets/CM/variables/DOMAIN",
                                    "title": "Domain Abbreviation",
                                    "type": "SDTM Dataset Variable"
                                }
                            },
                            "core": "Req",
                            "description": "Two-character abbreviation for the domain.",
                            "label": "Domain Abbreviation",
                            "name": "DOMAIN",
                            "ordinal": "2",
                            "role": "Identifier",
                            "simpleDatatype": "Char",
                            "valueList": [
                                "CM"
                            ]
                        },
                        {
                            "_links": {
                                "modelClassVariable": {
                                    "href": "/mdr/sdtm/1-2/classes/GeneralObservations/variables/USUBJID",
                                    "title": "Unique Subject Identifier",
                                    "type": "Class Variable"
                                },
                                "parentDataset": {
                                    "href": "/mdr/sdtmig/3-1-2/datasets/CM",
                                    "title": "Concomitant Medications",
                                    "type": "SDTM Dataset"
                                },
                                "parentProduct": {
                                    "href": "/mdr/sdtmig/3-1-2",
                                    "title": "Study Data Tabulation Model Implementation Guide: Human Clinical Trials Version 3.1.2 (Final)",
                                    "type": "Implementation Guide"
                                },
                                "rootItem": {
                                    "href": "/mdr/root/sdtmig/datasets/CM/variables/USUBJID",
                                    "title": "Version-agnostic anchor resource for SDTMIG variable CM.USUBJID",
                                    "type": "Root Data Element"
                                },
                                "self": {
                                    "href": "/mdr/sdtmig/3-1-2/datasets/CM/variables/USUBJID",
                                    "title": "Unique Subject Identifier",
                                    "type": "SDTM Dataset Variable"
                                }
                            },
                            "core": "Req",
                            "description": "Identifier used to uniquely identify a subject across all studies for all applications or submissions involving the product.",
                            "label": "Unique Subject Identifier",
                            "name": "USUBJID",
                            "ordinal": "3",
                            "role": "Identifier",
                            "simpleDatatype": "Char"
                        },
                        {
                            "_links": {
                                "modelClassVariable": {
                                    "href": "/mdr/sdtm/1-2/classes/GeneralObservations/variables/--SEQ",
                                    "title": "Sequence Number",
                                    "type": "Class Variable"
                                },
                                "parentDataset": {
                                    "href": "/mdr/sdtmig/3-1-2/datasets/CM",
                                    "title": "Concomitant Medications",
                                    "type": "SDTM Dataset"
                                },
                                "parentProduct": {
                                    "href": "/mdr/sdtmig/3-1-2",
                                    "title": "Study Data Tabulation Model Implementation Guide: Human Clinical Trials Version 3.1.2 (Final)",
                                    "type": "Implementation Guide"
                                },
                                "rootItem": {
                                    "href": "/mdr/root/sdtmig/datasets/CM/variables/CMSEQ",
                                    "title": "Version-agnostic anchor resource for SDTMIG variable CM.CMSEQ",
                                    "type": "Root Data Element"
                                },
                                "self": {
                                    "href": "/mdr/sdtmig/3-1-2/datasets/CM/variables/CMSEQ",
                                    "title": "Sequence Number",
                                    "type": "SDTM Dataset Variable"
                                }
                            },
                            "core": "Req",
                            "description": "Sequence Number given to ensure uniqueness of subject records within a domain. May be any valid number.",
                            "label": "Sequence Number",
                            "name": "CMSEQ",
                            "ordinal": "4",
                            "role": "Identifier",
                            "simpleDatatype": "Num"
                        },
                        {
                            "_links": {
                                "modelClassVariable": {
                                    "href": "/mdr/sdtm/1-2/classes/GeneralObservations/variables/--GRPID",
                                    "title": "Group ID",
                                    "type": "Class Variable"
                                },
                                "parentDataset": {
                                    "href": "/mdr/sdtmig/3-1-2/datasets/CM",
                                    "title": "Concomitant Medications",
                                    "type": "SDTM Dataset"
                                },
                                "parentProduct": {
                                    "href": "/mdr/sdtmig/3-1-2",
                                    "title": "Study Data Tabulation Model Implementation Guide: Human Clinical Trials Version 3.1.2 (Final)",
                                    "type": "Implementation Guide"
                                },
                                "rootItem": {
                                    "href": "/mdr/root/sdtmig/datasets/CM/variables/CMGRPID",
                                    "title": "Version-agnostic anchor resource for SDTMIG variable CM.CMGRPID",
                                    "type": "Root Data Element"
                                },
                                "self": {
                                    "href": "/mdr/sdtmig/3-1-2/datasets/CM/variables/CMGRPID",
                                    "title": "Group ID",
                                    "type": "SDTM Dataset Variable"
                                }
                            },
                            "core": "Perm",
                            "description": "Used to tie together a block of related records in a single domain for a subject.",
                            "label": "Group ID",
                            "name": "CMGRPID",
                            "ordinal": "5",
                            "role": "Identifier",
                            "simpleDatatype": "Char"
                        },
                        {
                            "_links": {
                                "modelClassVariable": {
                                    "href": "/mdr/sdtm/1-2/classes/GeneralObservations/variables/--SPID",
                                    "title": "Sponsor ID",
                                    "type": "Class Variable"
                                },
                                "parentDataset": {
                                    "href": "/mdr/sdtmig/3-1-2/datasets/CM",
                                    "title": "Concomitant Medications",
                                    "type": "SDTM Dataset"
                                },
                                "parentProduct": {
                                    "href": "/mdr/sdtmig/3-1-2",
                                    "title": "Study Data Tabulation Model Implementation Guide: Human Clinical Trials Version 3.1.2 (Final)",
                                    "type": "Implementation Guide"
                                },
                                "rootItem": {
                                    "href": "/mdr/root/sdtmig/datasets/CM/variables/CMSPID",
                                    "title": "Version-agnostic anchor resource for SDTMIG variable CM.CMSPID",
                                    "type": "Root Data Element"
                                },
                                "self": {
                                    "href": "/mdr/sdtmig/3-1-2/datasets/CM/variables/CMSPID",
                                    "title": "Sponsor-Defined Identifier",
                                    "type": "SDTM Dataset Variable"
                                }
                            },
                            "core": "Perm",
                            "description": "Sponsor-defined reference number. Examples: a number pre-printed on the CRF as an explicit line identifier or record identifier defined in the sponsor's operational database. Example: line number on a concomitant medication page.",
                            "label": "Sponsor-Defined Identifier",
                            "name": "CMSPID",
                            "ordinal": "6",
                            "role": "Identifier",
                            "simpleDatatype": "Char"
                        },
                        {
                            "_links": {
                                "modelClassVariable": {
                                    "href": "/mdr/sdtm/1-2/classes/Interventions/variables/--TRT",
                                    "title": "Name of Treatment",
                                    "type": "Class Variable"
                                },
                                "parentDataset": {
                                    "href": "/mdr/sdtmig/3-1-2/datasets/CM",
                                    "title": "Concomitant Medications",
                                    "type": "SDTM Dataset"
                                },
                                "parentProduct": {
                                    "href": "/mdr/sdtmig/3-1-2",
                                    "title": "Study Data Tabulation Model Implementation Guide: Human Clinical Trials Version 3.1.2 (Final)",
                                    "type": "Implementation Guide"
                                },
                                "rootItem": {
                                    "href": "/mdr/root/sdtmig/datasets/CM/variables/CMTRT",
                                    "title": "Version-agnostic anchor resource for SDTMIG variable CM.CMTRT",
                                    "type": "Root Data Element"
                                },
                                "self": {
                                    "href": "/mdr/sdtmig/3-1-2/datasets/CM/variables/CMTRT",
                                    "title": "Reported Name of Drug, Med, or Therapy",
                                    "type": "SDTM Dataset Variable"
                                }
                            },
                            "core": "Req",
                            "description": "Verbatim medication name that is either pre-printed or collected on a CRF.",
                            "label": "Reported Name of Drug, Med, or Therapy",
                            "name": "CMTRT",
                            "ordinal": "7",
                            "role": "Topic",
                            "simpleDatatype": "Char"
                        },
                        {
                            "_links": {
                                "modelClassVariable": {
                                    "href": "/mdr/sdtm/1-2/classes/Interventions/variables/--MODIFY",
                                    "title": "Modified Treatment Name",
                                    "type": "Class Variable"
                                },
                                "parentDataset": {
                                    "href": "/mdr/sdtmig/3-1-2/datasets/CM",
                                    "title": "Concomitant Medications",
                                    "type": "SDTM Dataset"
                                },
                                "parentProduct": {
                                    "href": "/mdr/sdtmig/3-1-2",
                                    "title": "Study Data Tabulation Model Implementation Guide: Human Clinical Trials Version 3.1.2 (Final)",
                                    "type": "Implementation Guide"
                                },
                                "rootItem": {
                                    "href": "/mdr/root/sdtmig/datasets/CM/variables/CMMODIFY",
                                    "title": "Version-agnostic anchor resource for SDTMIG variable CM.CMMODIFY",
                                    "type": "Root Data Element"
                                },
                                "self": {
                                    "href": "/mdr/sdtmig/3-1-2/datasets/CM/variables/CMMODIFY",
                                    "title": "Modified Reported Name",
                                    "type": "SDTM Dataset Variable"
                                }
                            },
                            "core": "Perm",
                            "description": "If CMTRT is modified to facilitate coding, then CMMODIFY will contain the modified text.",
                            "label": "Modified Reported Name",
                            "name": "CMMODIFY",
                            "ordinal": "8",
                            "role": "Synonym Qualifier",
                            "simpleDatatype": "Char"
                        },
                        {
                            "_links": {
                                "modelClassVariable": {
                                    "href": "/mdr/sdtm/1-2/classes/Interventions/variables/--DECOD",
                                    "title": "Standardized Treatment Name",
                                    "type": "Class Variable"
                                },
                                "parentDataset": {
                                    "href": "/mdr/sdtmig/3-1-2/datasets/CM",
                                    "title": "Concomitant Medications",
                                    "type": "SDTM Dataset"
                                },
                                "parentProduct": {
                                    "href": "/mdr/sdtmig/3-1-2",
                                    "title": "Study Data Tabulation Model Implementation Guide: Human Clinical Trials Version 3.1.2 (Final)",
                                    "type": "Implementation Guide"
                                },
                                "rootItem": {
                                    "href": "/mdr/root/sdtmig/datasets/CM/variables/CMDECOD",
                                    "title": "Version-agnostic anchor resource for SDTMIG variable CM.CMDECOD",
                                    "type": "Root Data Element"
                                },
                                "self": {
                                    "href": "/mdr/sdtmig/3-1-2/datasets/CM/variables/CMDECOD",
                                    "title": "Standardized Medication Name",
                                    "type": "SDTM Dataset Variable"
                                }
                            },
                            "core": "Perm",
                            "description": "Standardized or dictionary-derived text description of CMTRT or CMMODIFY. Equivalent to the generic medication name in WHO Drug. The sponsor is expected to provide the dictionary name and version used to map the terms utilizing the define.xml external codelist attributes. If an intervention term does not have a decode value in the dictionary then CMDECOD will be left blank.",
                            "label": "Standardized Medication Name",
                            "name": "CMDECOD",
                            "ordinal": "9",
                            "role": "Synonym Qualifier",
                            "simpleDatatype": "Char"
                        },
                        {
                            "_links": {
                                "modelClassVariable": {
                                    "href": "/mdr/sdtm/1-2/classes/Interventions/variables/--CAT",
                                    "title": "Category",
                                    "type": "Class Variable"
                                },
                                "parentDataset": {
                                    "href": "/mdr/sdtmig/3-1-2/datasets/CM",
                                    "title": "Concomitant Medications",
                                    "type": "SDTM Dataset"
                                },
                                "parentProduct": {
                                    "href": "/mdr/sdtmig/3-1-2",
                                    "title": "Study Data Tabulation Model Implementation Guide: Human Clinical Trials Version 3.1.2 (Final)",
                                    "type": "Implementation Guide"
                                },
                                "rootItem": {
                                    "href": "/mdr/root/sdtmig/datasets/CM/variables/CMCAT",
                                    "title": "Version-agnostic anchor resource for SDTMIG variable CM.CMCAT",
                                    "type": "Root Data Element"
                                },
                                "self": {
                                    "href": "/mdr/sdtmig/3-1-2/datasets/CM/variables/CMCAT",
                                    "title": "Category for Medication",
                                    "type": "SDTM Dataset Variable"
                                }
                            },
                            "core": "Perm",
                            "description": "Used to define a category of medications/treatments. Examples: PRIOR, CONCOMITANT, ANTI-CANCER MEDICATION, or GENERAL CONMED.",
                            "label": "Category for Medication",
                            "name": "CMCAT",
                            "ordinal": "10",
                            "role": "Grouping Qualifier",
                            "simpleDatatype": "Char"
                        },
                        {
                            "_links": {
                                "modelClassVariable": {
                                    "href": "/mdr/sdtm/1-2/classes/Interventions/variables/--SCAT",
                                    "title": "Subcategory",
                                    "type": "Class Variable"
                                },
                                "parentDataset": {
                                    "href": "/mdr/sdtmig/3-1-2/datasets/CM",
                                    "title": "Concomitant Medications",
                                    "type": "SDTM Dataset"
                                },
                                "parentProduct": {
                                    "href": "/mdr/sdtmig/3-1-2",
                                    "title": "Study Data Tabulation Model Implementation Guide: Human Clinical Trials Version 3.1.2 (Final)",
                                    "type": "Implementation Guide"
                                },
                                "rootItem": {
                                    "href": "/mdr/root/sdtmig/datasets/CM/variables/CMSCAT",
                                    "title": "Version-agnostic anchor resource for SDTMIG variable CM.CMSCAT",
                                    "type": "Root Data Element"
                                },
                                "self": {
                                    "href": "/mdr/sdtmig/3-1-2/datasets/CM/variables/CMSCAT",
                                    "title": "Subcategory for Medication",
                                    "type": "SDTM Dataset Variable"
                                }
                            },
                            "core": "Perm",
                            "description": "A further categorization of medications/ treatment. Examples: CHEMOTHERAPY, HORMONAL THERAPY, ALTERNATIVE THERAPY.",
                            "label": "Subcategory for Medication",
                            "name": "CMSCAT",
                            "ordinal": "11",
                            "role": "Grouping Qualifier",
                            "simpleDatatype": "Char"
                        },
                        {
                            "_links": {
                                "codelist": [
                                    {
                                        "href": "/mdr/root/ct/sdtmct/codelists/C66742",
                                        "title": "Version-agnostic anchor resource for codelist C66742",
                                        "type": "Root Value Domain"
                                    }
                                ],
                                "modelClassVariable": {
                                    "href": "/mdr/sdtm/1-2/classes/Interventions/variables/--PRESP",
                                    "title": "Pre-specified",
                                    "type": "Class Variable"
                                },
                                "parentDataset": {
                                    "href": "/mdr/sdtmig/3-1-2/datasets/CM",
                                    "title": "Concomitant Medications",
                                    "type": "SDTM Dataset"
                                },
                                "parentProduct": {
                                    "href": "/mdr/sdtmig/3-1-2",
                                    "title": "Study Data Tabulation Model Implementation Guide: Human Clinical Trials Version 3.1.2 (Final)",
                                    "type": "Implementation Guide"
                                },
                                "rootItem": {
                                    "href": "/mdr/root/sdtmig/datasets/CM/variables/CMPRESP",
                                    "title": "Version-agnostic anchor resource for SDTMIG variable CM.CMPRESP",
                                    "type": "Root Data Element"
                                },
                                "self": {
                                    "href": "/mdr/sdtmig/3-1-2/datasets/CM/variables/CMPRESP",
                                    "title": "CM Pre-Specified",
                                    "type": "SDTM Dataset Variable"
                                }
                            },
                            "core": "Perm",
                            "description": "Used to indicate whether (Y/null) information about the use of a specific medication was solicited on the CRF.",
                            "label": "CM Pre-Specified",
                            "name": "CMPRESP",
                            "ordinal": "12",
                            "role": "Record Qualifier",
                            "simpleDatatype": "Char"
                        },
                        {
                            "_links": {
                                "codelist": [
                                    {
                                        "href": "/mdr/root/ct/sdtmct/codelists/C66742",
                                        "title": "Version-agnostic anchor resource for codelist C66742",
                                        "type": "Root Value Domain"
                                    }
                                ],
                                "modelClassVariable": {
                                    "href": "/mdr/sdtm/1-2/classes/Interventions/variables/--OCCUR",
                                    "title": "Occurrence",
                                    "type": "Class Variable"
                                },
                                "parentDataset": {
                                    "href": "/mdr/sdtmig/3-1-2/datasets/CM",
                                    "title": "Concomitant Medications",
                                    "type": "SDTM Dataset"
                                },
                                "parentProduct": {
                                    "href": "/mdr/sdtmig/3-1-2",
                                    "title": "Study Data Tabulation Model Implementation Guide: Human Clinical Trials Version 3.1.2 (Final)",
                                    "type": "Implementation Guide"
                                },
                                "rootItem": {
                                    "href": "/mdr/root/sdtmig/datasets/CM/variables/CMOCCUR",
                                    "title": "Version-agnostic anchor resource for SDTMIG variable CM.CMOCCUR",
                                    "type": "Root Data Element"
                                },
                                "self": {
                                    "href": "/mdr/sdtmig/3-1-2/datasets/CM/variables/CMOCCUR",
                                    "title": "CM Occurrence",
                                    "type": "SDTM Dataset Variable"
                                }
                            },
                            "core": "Perm",
                            "description": "When the use of specific medications is solicited, CMOCCUR is used to indicate whether or not (Y/N) use of the medication occurred. Values are null for medications not specifically solicited.",
                            "label": "CM Occurrence",
                            "name": "CMOCCUR",
                            "ordinal": "13",
                            "role": "Record Qualifier",
                            "simpleDatatype": "Char"
                        },
                        {
                            "_links": {
                                "codelist": [
                                    {
                                        "href": "/mdr/root/ct/sdtmct/codelists/C66789",
                                        "title": "Version-agnostic anchor resource for codelist C66789",
                                        "type": "Root Value Domain"
                                    }
                                ],
                                "modelClassVariable": {
                                    "href": "/mdr/sdtm/1-2/classes/Interventions/variables/--STAT",
                                    "title": "Completion Status",
                                    "type": "Class Variable"
                                },
                                "parentDataset": {
                                    "href": "/mdr/sdtmig/3-1-2/datasets/CM",
                                    "title": "Concomitant Medications",
                                    "type": "SDTM Dataset"
                                },
                                "parentProduct": {
                                    "href": "/mdr/sdtmig/3-1-2",
                                    "title": "Study Data Tabulation Model Implementation Guide: Human Clinical Trials Version 3.1.2 (Final)",
                                    "type": "Implementation Guide"
                                },
                                "rootItem": {
                                    "href": "/mdr/root/sdtmig/datasets/CM/variables/CMSTAT",
                                    "title": "Version-agnostic anchor resource for SDTMIG variable CM.CMSTAT",
                                    "type": "Root Data Element"
                                },
                                "self": {
                                    "href": "/mdr/sdtmig/3-1-2/datasets/CM/variables/CMSTAT",
                                    "title": "Completion Status",
                                    "type": "SDTM Dataset Variable"
                                }
                            },
                            "core": "Perm",
                            "description": "Used to indicate that a question about a pre-specified medication was not answered. Should be null or have a value of NOT DONE.",
                            "label": "Completion Status",
                            "name": "CMSTAT",
                            "ordinal": "14",
                            "role": "Record Qualifier",
                            "simpleDatatype": "Char"
                        },
                        {
                            "_links": {
                                "modelClassVariable": {
                                    "href": "/mdr/sdtm/1-2/classes/Interventions/variables/--REASND",
                                    "title": "Reason Not Done",
                                    "type": "Class Variable"
                                },
                                "parentDataset": {
                                    "href": "/mdr/sdtmig/3-1-2/datasets/CM",
                                    "title": "Concomitant Medications",
                                    "type": "SDTM Dataset"
                                },
                                "parentProduct": {
                                    "href": "/mdr/sdtmig/3-1-2",
                                    "title": "Study Data Tabulation Model Implementation Guide: Human Clinical Trials Version 3.1.2 (Final)",
                                    "type": "Implementation Guide"
                                },
                                "rootItem": {
                                    "href": "/mdr/root/sdtmig/datasets/CM/variables/CMREASND",
                                    "title": "Version-agnostic anchor resource for SDTMIG variable CM.CMREASND",
                                    "type": "Root Data Element"
                                },
                                "self": {
                                    "href": "/mdr/sdtmig/3-1-2/datasets/CM/variables/CMREASND",
                                    "title": "Reason Medication Not Collected",
                                    "type": "SDTM Dataset Variable"
                                }
                            },
                            "core": "Perm",
                            "description": "Describes the reason concomitant medication was not collected. Used in conjunction with CMSTAT when value is NOT DONE.",
                            "label": "Reason Medication Not Collected",
                            "name": "CMREASND",
                            "ordinal": "15",
                            "role": "Record Qualifier",
                            "simpleDatatype": "Char"
                        },
                        {
                            "_links": {
                                "modelClassVariable": {
                                    "href": "/mdr/sdtm/1-2/classes/Interventions/variables/--INDC",
                                    "title": "Indication",
                                    "type": "Class Variable"
                                },
                                "parentDataset": {
                                    "href": "/mdr/sdtmig/3-1-2/datasets/CM",
                                    "title": "Concomitant Medications",
                                    "type": "SDTM Dataset"
                                },
                                "parentProduct": {
                                    "href": "/mdr/sdtmig/3-1-2",
                                    "title": "Study Data Tabulation Model Implementation Guide: Human Clinical Trials Version 3.1.2 (Final)",
                                    "type": "Implementation Guide"
                                },
                                "rootItem": {
                                    "href": "/mdr/root/sdtmig/datasets/CM/variables/CMINDC",
                                    "title": "Version-agnostic anchor resource for SDTMIG variable CM.CMINDC",
                                    "type": "Root Data Element"
                                },
                                "self": {
                                    "href": "/mdr/sdtmig/3-1-2/datasets/CM/variables/CMINDC",
                                    "title": "Indication",
                                    "type": "SDTM Dataset Variable"
                                }
                            },
                            "core": "Perm",
                            "description": "Denotes why a medication was taken or administered. Examples: NAUSEA, HYPERTENSION.",
                            "label": "Indication",
                            "name": "CMINDC",
                            "ordinal": "16",
                            "role": "Record Qualifier",
                            "simpleDatatype": "Char"
                        },
                        {
                            "_links": {
                                "modelClassVariable": {
                                    "href": "/mdr/sdtm/1-2/classes/Interventions/variables/--CLAS",
                                    "title": "Class",
                                    "type": "Class Variable"
                                },
                                "parentDataset": {
                                    "href": "/mdr/sdtmig/3-1-2/datasets/CM",
                                    "title": "Concomitant Medications",
                                    "type": "SDTM Dataset"
                                },
                                "parentProduct": {
                                    "href": "/mdr/sdtmig/3-1-2",
                                    "title": "Study Data Tabulation Model Implementation Guide: Human Clinical Trials Version 3.1.2 (Final)",
                                    "type": "Implementation Guide"
                                },
                                "rootItem": {
                                    "href": "/mdr/root/sdtmig/datasets/CM/variables/CMCLAS",
                                    "title": "Version-agnostic anchor resource for SDTMIG variable CM.CMCLAS",
                                    "type": "Root Data Element"
                                },
                                "self": {
                                    "href": "/mdr/sdtmig/3-1-2/datasets/CM/variables/CMCLAS",
                                    "title": "Medication Class",
                                    "type": "SDTM Dataset Variable"
                                }
                            },
                            "core": "Perm",
                            "description": "Drug class. May be obtained from coding. When coding to a single class, populate with class value. If using a dictionary and coding to multiple classes, then follow assumption 4.1.2.8.3 or omit CMCLAS.",
                            "label": "Medication Class",
                            "name": "CMCLAS",
                            "ordinal": "17",
                            "role": "Variable Qualifier",
                            "simpleDatatype": "Char"
                        },
                        {
                            "_links": {
                                "modelClassVariable": {
                                    "href": "/mdr/sdtm/1-2/classes/Interventions/variables/--CLASCD",
                                    "title": "Class Code",
                                    "type": "Class Variable"
                                },
                                "parentDataset": {
                                    "href": "/mdr/sdtmig/3-1-2/datasets/CM",
                                    "title": "Concomitant Medications",
                                    "type": "SDTM Dataset"
                                },
                                "parentProduct": {
                                    "href": "/mdr/sdtmig/3-1-2",
                                    "title": "Study Data Tabulation Model Implementation Guide: Human Clinical Trials Version 3.1.2 (Final)",
                                    "type": "Implementation Guide"
                                },
                                "rootItem": {
                                    "href": "/mdr/root/sdtmig/datasets/CM/variables/CMCLASCD",
                                    "title": "Version-agnostic anchor resource for SDTMIG variable CM.CMCLASCD",
                                    "type": "Root Data Element"
                                },
                                "self": {
                                    "href": "/mdr/sdtmig/3-1-2/datasets/CM/variables/CMCLASCD",
                                    "title": "Medication Class Code",
                                    "type": "SDTM Dataset Variable"
                                }
                            },
                            "core": "Perm",
                            "description": "Class code corresponding to CMCLAS. Drug class. May be obtained from coding. When coding to a single class, populate with class code. If using a dictionary and coding to multiple classes, then follow assumption 4.1.2.8.3 or omit CMCLASCD.",
                            "label": "Medication Class Code",
                            "name": "CMCLASCD",
                            "ordinal": "18",
                            "role": "Variable Qualifier",
                            "simpleDatatype": "Char"
                        },
                        {
                            "_links": {
                                "modelClassVariable": {
                                    "href": "/mdr/sdtm/1-2/classes/Interventions/variables/--DOSE",
                                    "title": "Dose",
                                    "type": "Class Variable"
                                },
                                "parentDataset": {
                                    "href": "/mdr/sdtmig/3-1-2/datasets/CM",
                                    "title": "Concomitant Medications",
                                    "type": "SDTM Dataset"
                                },
                                "parentProduct": {
                                    "href": "/mdr/sdtmig/3-1-2",
                                    "title": "Study Data Tabulation Model Implementation Guide: Human Clinical Trials Version 3.1.2 (Final)",
                                    "type": "Implementation Guide"
                                },
                                "rootItem": {
                                    "href": "/mdr/root/sdtmig/datasets/CM/variables/CMDOSE",
                                    "title": "Version-agnostic anchor resource for SDTMIG variable CM.CMDOSE",
                                    "type": "Root Data Element"
                                },
                                "self": {
                                    "href": "/mdr/sdtmig/3-1-2/datasets/CM/variables/CMDOSE",
                                    "title": "Dose per Administration",
                                    "type": "SDTM Dataset Variable"
                                }
                            },
                            "core": "Perm",
                            "description": "Amount of CMTRT taken.",
                            "label": "Dose per Administration",
                            "name": "CMDOSE",
                            "ordinal": "19",
                            "role": "Record Qualifier",
                            "simpleDatatype": "Num"
                        },
                        {
                            "_links": {
                                "modelClassVariable": {
                                    "href": "/mdr/sdtm/1-2/classes/Interventions/variables/--DOSTXT",
                                    "title": "Dose Description",
                                    "type": "Class Variable"
                                },
                                "parentDataset": {
                                    "href": "/mdr/sdtmig/3-1-2/datasets/CM",
                                    "title": "Concomitant Medications",
                                    "type": "SDTM Dataset"
                                },
                                "parentProduct": {
                                    "href": "/mdr/sdtmig/3-1-2",
                                    "title": "Study Data Tabulation Model Implementation Guide: Human Clinical Trials Version 3.1.2 (Final)",
                                    "type": "Implementation Guide"
                                },
                                "rootItem": {
                                    "href": "/mdr/root/sdtmig/datasets/CM/variables/CMDOSTXT",
                                    "title": "Version-agnostic anchor resource for SDTMIG variable CM.CMDOSTXT",
                                    "type": "Root Data Element"
                                },
                                "self": {
                                    "href": "/mdr/sdtmig/3-1-2/datasets/CM/variables/CMDOSTXT",
                                    "title": "Dose Description",
                                    "type": "SDTM Dataset Variable"
                                }
                            },
                            "core": "Perm",
                            "description": "Dosing amounts or a range of dosing information collected in text form. Units may be stored in CMDOSU. Example: 200-400, 15-20.",
                            "label": "Dose Description",
                            "name": "CMDOSTXT",
                            "ordinal": "20",
                            "role": "Record Qualifier",
                            "simpleDatatype": "Char"
                        },
                        {
                            "_links": {
                                "codelist": [
                                    {
                                        "href": "/mdr/root/ct/sdtmct/codelists/C71620",
                                        "title": "Version-agnostic anchor resource for codelist C71620",
                                        "type": "Root Value Domain"
                                    }
                                ],
                                "modelClassVariable": {
                                    "href": "/mdr/sdtm/1-2/classes/Interventions/variables/--DOSU",
                                    "title": "Dose Units",
                                    "type": "Class Variable"
                                },
                                "parentDataset": {
                                    "href": "/mdr/sdtmig/3-1-2/datasets/CM",
                                    "title": "Concomitant Medications",
                                    "type": "SDTM Dataset"
                                },
                                "parentProduct": {
                                    "href": "/mdr/sdtmig/3-1-2",
                                    "title": "Study Data Tabulation Model Implementation Guide: Human Clinical Trials Version 3.1.2 (Final)",
                                    "type": "Implementation Guide"
                                },
                                "rootItem": {
                                    "href": "/mdr/root/sdtmig/datasets/CM/variables/CMDOSU",
                                    "title": "Version-agnostic anchor resource for SDTMIG variable CM.CMDOSU",
                                    "type": "Root Data Element"
                                },
                                "self": {
                                    "href": "/mdr/sdtmig/3-1-2/datasets/CM/variables/CMDOSU",
                                    "title": "Dose Units",
                                    "type": "SDTM Dataset Variable"
                                }
                            },
                            "core": "Perm",
                            "description": "Units for CMDOSE, CMDOSTXT, and CMDOSTOT. Examples: ng, mg, or mg/kg.",
                            "label": "Dose Units",
                            "name": "CMDOSU",
                            "ordinal": "21",
                            "role": "Variable Qualifier",
                            "simpleDatatype": "Char"
                        },
                        {
                            "_links": {
                                "codelist": [
                                    {
                                        "href": "/mdr/root/ct/sdtmct/codelists/C66726",
                                        "title": "Version-agnostic anchor resource for codelist C66726",
                                        "type": "Root Value Domain"
                                    }
                                ],
                                "modelClassVariable": {
                                    "href": "/mdr/sdtm/1-2/classes/Interventions/variables/--DOSFRM",
                                    "title": "Dose Form",
                                    "type": "Class Variable"
                                },
                                "parentDataset": {
                                    "href": "/mdr/sdtmig/3-1-2/datasets/CM",
                                    "title": "Concomitant Medications",
                                    "type": "SDTM Dataset"
                                },
                                "parentProduct": {
                                    "href": "/mdr/sdtmig/3-1-2",
                                    "title": "Study Data Tabulation Model Implementation Guide: Human Clinical Trials Version 3.1.2 (Final)",
                                    "type": "Implementation Guide"
                                },
                                "rootItem": {
                                    "href": "/mdr/root/sdtmig/datasets/CM/variables/CMDOSFRM",
                                    "title": "Version-agnostic anchor resource for SDTMIG variable CM.CMDOSFRM",
                                    "type": "Root Data Element"
                                },
                                "self": {
                                    "href": "/mdr/sdtmig/3-1-2/datasets/CM/variables/CMDOSFRM",
                                    "title": "Dose Form",
                                    "type": "SDTM Dataset Variable"
                                }
                            },
                            "core": "Perm",
                            "description": "Dose form for CMTRT. Examples: TABLET, LOTION.",
                            "label": "Dose Form",
                            "name": "CMDOSFRM",
                            "ordinal": "22",
                            "role": "Record Qualifier",
                            "simpleDatatype": "Char"
                        },
                        {
                            "_links": {
                                "codelist": [
                                    {
                                        "href": "/mdr/root/ct/sdtmct/codelists/C71113",
                                        "title": "Version-agnostic anchor resource for codelist C71113",
                                        "type": "Root Value Domain"
                                    }
                                ],
                                "modelClassVariable": {
                                    "href": "/mdr/sdtm/1-2/classes/Interventions/variables/--DOSFRQ",
                                    "title": "Dosing Frequency per Interval",
                                    "type": "Class Variable"
                                },
                                "parentDataset": {
                                    "href": "/mdr/sdtmig/3-1-2/datasets/CM",
                                    "title": "Concomitant Medications",
                                    "type": "SDTM Dataset"
                                },
                                "parentProduct": {
                                    "href": "/mdr/sdtmig/3-1-2",
                                    "title": "Study Data Tabulation Model Implementation Guide: Human Clinical Trials Version 3.1.2 (Final)",
                                    "type": "Implementation Guide"
                                },
                                "rootItem": {
                                    "href": "/mdr/root/sdtmig/datasets/CM/variables/CMDOSFRQ",
                                    "title": "Version-agnostic anchor resource for SDTMIG variable CM.CMDOSFRQ",
                                    "type": "Root Data Element"
                                },
                                "self": {
                                    "href": "/mdr/sdtmig/3-1-2/datasets/CM/variables/CMDOSFRQ",
                                    "title": "Dosing Frequency Per Interval",
                                    "type": "SDTM Dataset Variable"
                                }
                            },
                            "core": "Perm",
                            "description": "Usually expressed as the number of repeated administrations of CMDOSE within a specific time period. Examples: BID (twice daily), Q12H (every 12 hours).",
                            "label": "Dosing Frequency Per Interval",
                            "name": "CMDOSFRQ",
                            "ordinal": "23",
                            "role": "Variable Qualifier",
                            "simpleDatatype": "Char"
                        },
                        {
                            "_links": {
                                "modelClassVariable": {
                                    "href": "/mdr/sdtm/1-2/classes/Interventions/variables/--DOSTOT",
                                    "title": "Total Daily Dose",
                                    "type": "Class Variable"
                                },
                                "parentDataset": {
                                    "href": "/mdr/sdtmig/3-1-2/datasets/CM",
                                    "title": "Concomitant Medications",
                                    "type": "SDTM Dataset"
                                },
                                "parentProduct": {
                                    "href": "/mdr/sdtmig/3-1-2",
                                    "title": "Study Data Tabulation Model Implementation Guide: Human Clinical Trials Version 3.1.2 (Final)",
                                    "type": "Implementation Guide"
                                },
                                "rootItem": {
                                    "href": "/mdr/root/sdtmig/datasets/CM/variables/CMDOSTOT",
                                    "title": "Version-agnostic anchor resource for SDTMIG variable CM.CMDOSTOT",
                                    "type": "Root Data Element"
                                },
                                "self": {
                                    "href": "/mdr/sdtmig/3-1-2/datasets/CM/variables/CMDOSTOT",
                                    "title": "Total Daily Dose",
                                    "type": "SDTM Dataset Variable"
                                }
                            },
                            "core": "Perm",
                            "description": "Total daily dose of CMTRT using the units in CMDOSU. Total dose over a period other than day could be recorded in a separate Supplemental Qualifier variable. CMDOSTOT should be used in addition to CMDOSE, and not in place of it.",
                            "label": "Total Daily Dose",
                            "name": "CMDOSTOT",
                            "ordinal": "24",
                            "role": "Record Qualifier",
                            "simpleDatatype": "Num"
                        },
                        {
                            "_links": {
                                "modelClassVariable": {
                                    "href": "/mdr/sdtm/1-2/classes/Interventions/variables/--DOSRGM",
                                    "title": "Intended Dose Regimen",
                                    "type": "Class Variable"
                                },
                                "parentDataset": {
                                    "href": "/mdr/sdtmig/3-1-2/datasets/CM",
                                    "title": "Concomitant Medications",
                                    "type": "SDTM Dataset"
                                },
                                "parentProduct": {
                                    "href": "/mdr/sdtmig/3-1-2",
                                    "title": "Study Data Tabulation Model Implementation Guide: Human Clinical Trials Version 3.1.2 (Final)",
                                    "type": "Implementation Guide"
                                },
                                "rootItem": {
                                    "href": "/mdr/root/sdtmig/datasets/CM/variables/CMDOSRGM",
                                    "title": "Version-agnostic anchor resource for SDTMIG variable CM.CMDOSRGM",
                                    "type": "Root Data Element"
                                },
                                "self": {
                                    "href": "/mdr/sdtmig/3-1-2/datasets/CM/variables/CMDOSRGM",
                                    "title": "Intended Dose Regimen",
                                    "type": "SDTM Dataset Variable"
                                }
                            },
                            "core": "Perm",
                            "description": "Text description of the (intended) schedule or regimen for the Intervention. Examples: TWO WEEKS ON, TWO WEEKS OFF.",
                            "label": "Intended Dose Regimen",
                            "name": "CMDOSRGM",
                            "ordinal": "25",
                            "role": "Variable Qualifier",
                            "simpleDatatype": "Char"
                        },
                        {
                            "_links": {
                                "codelist": [
                                    {
                                        "href": "/mdr/root/ct/sdtmct/codelists/C66729",
                                        "title": "Version-agnostic anchor resource for codelist C66729",
                                        "type": "Root Value Domain"
                                    }
                                ],
                                "modelClassVariable": {
                                    "href": "/mdr/sdtm/1-2/classes/Interventions/variables/--ROUTE",
                                    "title": "Route of Administration",
                                    "type": "Class Variable"
                                },
                                "parentDataset": {
                                    "href": "/mdr/sdtmig/3-1-2/datasets/CM",
                                    "title": "Concomitant Medications",
                                    "type": "SDTM Dataset"
                                },
                                "parentProduct": {
                                    "href": "/mdr/sdtmig/3-1-2",
                                    "title": "Study Data Tabulation Model Implementation Guide: Human Clinical Trials Version 3.1.2 (Final)",
                                    "type": "Implementation Guide"
                                },
                                "rootItem": {
                                    "href": "/mdr/root/sdtmig/datasets/CM/variables/CMROUTE",
                                    "title": "Version-agnostic anchor resource for SDTMIG variable CM.CMROUTE",
                                    "type": "Root Data Element"
                                },
                                "self": {
                                    "href": "/mdr/sdtmig/3-1-2/datasets/CM/variables/CMROUTE",
                                    "title": "Route of Administration",
                                    "type": "SDTM Dataset Variable"
                                }
                            },
                            "core": "Perm",
                            "description": "Route of administration for CMTRT. Examples: ORAL, INTRAVENOUS.",
                            "label": "Route of Administration",
                            "name": "CMROUTE",
                            "ordinal": "26",
                            "role": "Variable Qualifier",
                            "simpleDatatype": "Char"
                        },
                        {
                            "_links": {
                                "modelClassVariable": {
                                    "href": "/mdr/sdtm/1-2/classes/GeneralObservations/variables/--STDTC",
                                    "title": "Start Date/Time of Observation",
                                    "type": "Class Variable"
                                },
                                "parentDataset": {
                                    "href": "/mdr/sdtmig/3-1-2/datasets/CM",
                                    "title": "Concomitant Medications",
                                    "type": "SDTM Dataset"
                                },
                                "parentProduct": {
                                    "href": "/mdr/sdtmig/3-1-2",
                                    "title": "Study Data Tabulation Model Implementation Guide: Human Clinical Trials Version 3.1.2 (Final)",
                                    "type": "Implementation Guide"
                                },
                                "rootItem": {
                                    "href": "/mdr/root/sdtmig/datasets/CM/variables/CMSTDTC",
                                    "title": "Version-agnostic anchor resource for SDTMIG variable CM.CMSTDTC",
                                    "type": "Root Data Element"
                                },
                                "self": {
                                    "href": "/mdr/sdtmig/3-1-2/datasets/CM/variables/CMSTDTC",
                                    "title": "Start Date/Time of Medication",
                                    "type": "SDTM Dataset Variable"
                                }
                            },
                            "core": "Perm",
                            "describedValueDomain": "ISO 8601",
                            "label": "Start Date/Time of Medication",
                            "name": "CMSTDTC",
                            "ordinal": "27",
                            "role": "Timing",
                            "simpleDatatype": "Char"
                        },
                        {
                            "_links": {
                                "modelClassVariable": {
                                    "href": "/mdr/sdtm/1-2/classes/GeneralObservations/variables/--ENDTC",
                                    "title": "End Date/Time of Observation",
                                    "type": "Class Variable"
                                },
                                "parentDataset": {
                                    "href": "/mdr/sdtmig/3-1-2/datasets/CM",
                                    "title": "Concomitant Medications",
                                    "type": "SDTM Dataset"
                                },
                                "parentProduct": {
                                    "href": "/mdr/sdtmig/3-1-2",
                                    "title": "Study Data Tabulation Model Implementation Guide: Human Clinical Trials Version 3.1.2 (Final)",
                                    "type": "Implementation Guide"
                                },
                                "rootItem": {
                                    "href": "/mdr/root/sdtmig/datasets/CM/variables/CMENDTC",
                                    "title": "Version-agnostic anchor resource for SDTMIG variable CM.CMENDTC",
                                    "type": "Root Data Element"
                                },
                                "self": {
                                    "href": "/mdr/sdtmig/3-1-2/datasets/CM/variables/CMENDTC",
                                    "title": "End Date/Time of Medication",
                                    "type": "SDTM Dataset Variable"
                                }
                            },
                            "core": "Perm",
                            "describedValueDomain": "ISO 8601",
                            "label": "End Date/Time of Medication",
                            "name": "CMENDTC",
                            "ordinal": "28",
                            "role": "Timing",
                            "simpleDatatype": "Char"
                        },
                        {
                            "_links": {
                                "modelClassVariable": {
                                    "href": "/mdr/sdtm/1-2/classes/GeneralObservations/variables/--STDY",
                                    "title": "Study Day of Start of Observation",
                                    "type": "Class Variable"
                                },
                                "parentDataset": {
                                    "href": "/mdr/sdtmig/3-1-2/datasets/CM",
                                    "title": "Concomitant Medications",
                                    "type": "SDTM Dataset"
                                },
                                "parentProduct": {
                                    "href": "/mdr/sdtmig/3-1-2",
                                    "title": "Study Data Tabulation Model Implementation Guide: Human Clinical Trials Version 3.1.2 (Final)",
                                    "type": "Implementation Guide"
                                },
                                "rootItem": {
                                    "href": "/mdr/root/sdtmig/datasets/CM/variables/CMSTDY",
                                    "title": "Version-agnostic anchor resource for SDTMIG variable CM.CMSTDY",
                                    "type": "Root Data Element"
                                },
                                "self": {
                                    "href": "/mdr/sdtmig/3-1-2/datasets/CM/variables/CMSTDY",
                                    "title": "Study Day of Start of Medication",
                                    "type": "SDTM Dataset Variable"
                                }
                            },
                            "core": "Perm",
                            "description": "Study day of start of medication relative to the sponsor-defined RFSTDTC.",
                            "label": "Study Day of Start of Medication",
                            "name": "CMSTDY",
                            "ordinal": "29",
                            "role": "Timing",
                            "simpleDatatype": "Num"
                        },
                        {
                            "_links": {
                                "modelClassVariable": {
                                    "href": "/mdr/sdtm/1-2/classes/GeneralObservations/variables/--ENDY",
                                    "title": "Study Day of End of Observation",
                                    "type": "Class Variable"
                                },
                                "parentDataset": {
