{
    "_links": {
        "model": {
            "href": "/mdr/sdtm/1-7",
            "title": "Study Data Tabulation Model Version 1.7",
            "type": "Foundational Model"
        },
        "priorVersion": {
            "href": "/mdr/sdtmig/3-2",
            "title": "Study Data Tabulation Model Implementation Guide: Human Clinical Trials Version 3.2 (Final)",
            "type": "Implementation Guide"
        },
        "self": {
            "href": "/mdr/sdtmig/3-3",
            "title": "Study Data Tabulation Model Implementation Guide: Human Clinical Trials Version 3.3 (Final)",
            "type": "Implementation Guide"
        }
    },
    "classes": [
        {
            "_links": {
                "modelClass": {
                    "href": "/mdr/sdtm/1-7/classes/GeneralObservations",
                    "title": "General Observation Class",
                    "type": "Class"
                },
                "parentProduct": {
                    "href": "/mdr/sdtmig/3-3",
                    "title": "Study Data Tabulation Model Implementation Guide: Human Clinical Trials Version 3.3 (Final)",
                    "type": "Implementation Guide"
                },
                "priorVersion": {
                    "href": "/mdr/sdtmig/3-2/classes/GeneralObservations",
                    "title": "General Observation Class",
                    "type": "Class"
                },
                "self": {
                    "href": "/mdr/sdtmig/3-3/classes/GeneralObservations",
                    "title": "General Observation Class",
                    "type": "Class"
                },
                "subclasses": [
                    {
                        "href": "/mdr/sdtmig/3-3/classes/Interventions",
                        "title": "Interventions Observation Class",
                        "type": "Class"
                    },
                    {
                        "href": "/mdr/sdtmig/3-3/classes/Events",
                        "title": "Events Observation Class",
                        "type": "Class"
                    },
                    {
                        "href": "/mdr/sdtmig/3-3/classes/Findings",
                        "title": "Findings Observation Class",
                        "type": "Class"
                    }
                ]
            },
            "description": "The majority of observations collected during a study can be divided among three general classes: Interventions, Events, or Findings.  Datasets based on any of the general observation classes share a set of common Identifier and Timing variables. As a general rule, any valid Identifier or Timing variable is permissible for use in any submission dataset based on a general observation class. (Source: SDTM v1.7, Section 2.2)",
            "label": "General Observation Class",
            "name": "General Observations",
            "ordinal": "1"
        },
        {
            "_links": {
                "modelClass": {
                    "href": "/mdr/sdtm/1-7/classes/SpecialPurpose",
                    "title": "Special-Purpose Datasets",
                    "type": "Class"
                },
                "parentProduct": {
                    "href": "/mdr/sdtmig/3-3",
                    "title": "Study Data Tabulation Model Implementation Guide: Human Clinical Trials Version 3.3 (Final)",
                    "type": "Implementation Guide"
                },
                "priorVersion": {
                    "href": "/mdr/sdtmig/3-2/classes/SpecialPurpose",
                    "title": "Special-Purpose Datasets",
                    "type": "Class"
                },
                "self": {
                    "href": "/mdr/sdtmig/3-3/classes/SpecialPurpose",
                    "title": "Special-Purpose Datasets",
                    "type": "Class"
                }
            },
            "datasets": [
                {
                    "_links": {
                        "modelDataset": {
                            "href": "/mdr/sdtm/1-7/datasets/CO",
                            "title": "Comments",
                            "type": "SDTM Dataset"
                        },
                        "parentClass": {
                            "href": "/mdr/sdtmig/3-3/classes/SpecialPurpose",
                            "title": "Special-Purpose Datasets",
                            "type": "Class"
                        },
                        "parentProduct": {
                            "href": "/mdr/sdtmig/3-3",
                            "title": "Study Data Tabulation Model Implementation Guide: Human Clinical Trials Version 3.3 (Final)",
                            "type": "Implementation Guide"
                        },
                        "priorVersion": {
                            "href": "/mdr/sdtmig/3-2/datasets/CO",
                            "title": "Comments",
                            "type": "SDTM Dataset"
                        },
                        "self": {
                            "href": "/mdr/sdtmig/3-3/datasets/CO",
                            "title": "Comments",
                            "type": "SDTM Dataset"
                        }
                    },
                    "datasetStructure": "One record per comment per subject",
                    "datasetVariables": [
                        {
                            "_links": {
                                "modelDatasetVariable": {
                                    "href": "/mdr/sdtm/1-7/datasets/CO/variables/STUDYID",
                                    "title": "Study Identifier",
                                    "type": "SDTM Dataset Variable"
                                },
                                "parentDataset": {
                                    "href": "/mdr/sdtmig/3-3/datasets/CO",
                                    "title": "Comments",
                                    "type": "SDTM Dataset"
                                },
                                "parentProduct": {
                                    "href": "/mdr/sdtmig/3-3",
                                    "title": "Study Data Tabulation Model Implementation Guide: Human Clinical Trials Version 3.3 (Final)",
                                    "type": "Implementation Guide"
                                },
                                "priorVersion": {
                                    "href": "/mdr/sdtmig/3-2/datasets/CO/variables/STUDYID",
                                    "title": "Study Identifier",
                                    "type": "SDTM Dataset Variable"
                                },
                                "rootItem": {
                                    "href": "/mdr/root/sdtmig/datasets/CO/variables/STUDYID",
                                    "title": "Version-agnostic anchor resource for SDTMIG variable CO.STUDYID",
                                    "type": "Root Data Element"
                                },
                                "self": {
                                    "href": "/mdr/sdtmig/3-3/datasets/CO/variables/STUDYID",
                                    "title": "Study Identifier",
                                    "type": "SDTM Dataset Variable"
                                }
                            },
                            "core": "Req",
                            "description": "Unique identifier for a study.",
                            "label": "Study Identifier",
                            "name": "STUDYID",
                            "ordinal": "1",
                            "role": "Identifier",
                            "simpleDatatype": "Char"
                        },
                        {
                            "_links": {
                                "modelDatasetVariable": {
                                    "href": "/mdr/sdtm/1-7/datasets/CO/variables/DOMAIN",
                                    "title": "Domain Abbreviation",
                                    "type": "SDTM Dataset Variable"
                                },
                                "parentDataset": {
                                    "href": "/mdr/sdtmig/3-3/datasets/CO",
                                    "title": "Comments",
                                    "type": "SDTM Dataset"
                                },
                                "parentProduct": {
                                    "href": "/mdr/sdtmig/3-3",
                                    "title": "Study Data Tabulation Model Implementation Guide: Human Clinical Trials Version 3.3 (Final)",
                                    "type": "Implementation Guide"
                                },
                                "priorVersion": {
                                    "href": "/mdr/sdtmig/3-2/datasets/CO/variables/DOMAIN",
                                    "title": "Domain Abbreviation",
                                    "type": "SDTM Dataset Variable"
                                },
                                "rootItem": {
                                    "href": "/mdr/root/sdtmig/datasets/CO/variables/DOMAIN",
                                    "title": "Version-agnostic anchor resource for SDTMIG variable CO.DOMAIN",
                                    "type": "Root Data Element"
                                },
                                "self": {
                                    "href": "/mdr/sdtmig/3-3/datasets/CO/variables/DOMAIN",
                                    "title": "Domain Abbreviation",
                                    "type": "SDTM Dataset Variable"
                                }
                            },
                            "core": "Req",
                            "description": "Two-character abbreviation for the domain.",
                            "label": "Domain Abbreviation",
                            "name": "DOMAIN",
                            "ordinal": "2",
                            "role": "Identifier",
                            "simpleDatatype": "Char",
                            "valueList": [
                                "CO"
                            ]
                        },
                        {
                            "_links": {
                                "modelDatasetVariable": {
                                    "href": "/mdr/sdtm/1-7/datasets/CO/variables/RDOMAIN",
                                    "title": "Related Domain Abbreviation",
                                    "type": "SDTM Dataset Variable"
                                },
                                "parentDataset": {
                                    "href": "/mdr/sdtmig/3-3/datasets/CO",
                                    "title": "Comments",
                                    "type": "SDTM Dataset"
                                },
                                "parentProduct": {
                                    "href": "/mdr/sdtmig/3-3",
                                    "title": "Study Data Tabulation Model Implementation Guide: Human Clinical Trials Version 3.3 (Final)",
                                    "type": "Implementation Guide"
                                },
                                "priorVersion": {
                                    "href": "/mdr/sdtmig/3-2/datasets/CO/variables/RDOMAIN",
                                    "title": "Related Domain Abbreviation",
                                    "type": "SDTM Dataset Variable"
                                },
                                "rootItem": {
                                    "href": "/mdr/root/sdtmig/datasets/CO/variables/RDOMAIN",
                                    "title": "Version-agnostic anchor resource for SDTMIG variable CO.RDOMAIN",
                                    "type": "Root Data Element"
                                },
                                "self": {
                                    "href": "/mdr/sdtmig/3-3/datasets/CO/variables/RDOMAIN",
                                    "title": "Related Domain Abbreviation",
                                    "type": "SDTM Dataset Variable"
                                }
                            },
                            "core": "Perm",
                            "description": "Two-character abbreviation for the domain of the parent record(s). Null for comments collected on a general comments or additional information CRF page.",
                            "label": "Related Domain Abbreviation",
                            "name": "RDOMAIN",
                            "ordinal": "3",
                            "role": "Record Qualifier",
                            "simpleDatatype": "Char"
                        },
                        {
                            "_links": {
                                "modelDatasetVariable": {
                                    "href": "/mdr/sdtm/1-7/datasets/CO/variables/USUBJID",
                                    "title": "Unique Subject Identifier",
                                    "type": "SDTM Dataset Variable"
                                },
                                "parentDataset": {
                                    "href": "/mdr/sdtmig/3-3/datasets/CO",
                                    "title": "Comments",
                                    "type": "SDTM Dataset"
                                },
                                "parentProduct": {
                                    "href": "/mdr/sdtmig/3-3",
                                    "title": "Study Data Tabulation Model Implementation Guide: Human Clinical Trials Version 3.3 (Final)",
                                    "type": "Implementation Guide"
                                },
                                "priorVersion": {
                                    "href": "/mdr/sdtmig/3-2/datasets/CO/variables/USUBJID",
                                    "title": "Unique Subject Identifier",
                                    "type": "SDTM Dataset Variable"
                                },
                                "rootItem": {
                                    "href": "/mdr/root/sdtmig/datasets/CO/variables/USUBJID",
                                    "title": "Version-agnostic anchor resource for SDTMIG variable CO.USUBJID",
                                    "type": "Root Data Element"
                                },
                                "self": {
                                    "href": "/mdr/sdtmig/3-3/datasets/CO/variables/USUBJID",
                                    "title": "Unique Subject Identifier",
                                    "type": "SDTM Dataset Variable"
                                }
                            },
                            "core": "Req",
                            "description": "Identifier used to uniquely identify a subject across all studies for all applications or submissions involving the product.",
                            "label": "Unique Subject Identifier",
                            "name": "USUBJID",
                            "ordinal": "4",
                            "role": "Identifier",
                            "simpleDatatype": "Char"
                        },
                        {
                            "_links": {
                                "modelDatasetVariable": {
                                    "href": "/mdr/sdtm/1-7/datasets/CO/variables/COSEQ",
                                    "title": "Sequence Number",
                                    "type": "SDTM Dataset Variable"
                                },
                                "parentDataset": {
                                    "href": "/mdr/sdtmig/3-3/datasets/CO",
                                    "title": "Comments",
                                    "type": "SDTM Dataset"
                                },
                                "parentProduct": {
                                    "href": "/mdr/sdtmig/3-3",
                                    "title": "Study Data Tabulation Model Implementation Guide: Human Clinical Trials Version 3.3 (Final)",
                                    "type": "Implementation Guide"
                                },
                                "priorVersion": {
                                    "href": "/mdr/sdtmig/3-2/datasets/CO/variables/COSEQ",
                                    "title": "Sequence Number",
                                    "type": "SDTM Dataset Variable"
                                },
                                "rootItem": {
                                    "href": "/mdr/root/sdtmig/datasets/CO/variables/COSEQ",
                                    "title": "Version-agnostic anchor resource for SDTMIG variable CO.COSEQ",
                                    "type": "Root Data Element"
                                },
                                "self": {
                                    "href": "/mdr/sdtmig/3-3/datasets/CO/variables/COSEQ",
                                    "title": "Sequence Number",
                                    "type": "SDTM Dataset Variable"
                                }
                            },
                            "core": "Req",
                            "description": "Sequence Number given to ensure uniqueness of subject records within a domain. May be any valid number.",
                            "label": "Sequence Number",
                            "name": "COSEQ",
                            "ordinal": "5",
                            "role": "Identifier",
                            "simpleDatatype": "Num"
                        },
                        {
                            "_links": {
                                "modelDatasetVariable": {
                                    "href": "/mdr/sdtm/1-7/datasets/CO/variables/IDVAR",
                                    "title": "Identifying Variable",
                                    "type": "SDTM Dataset Variable"
                                },
                                "parentDataset": {
                                    "href": "/mdr/sdtmig/3-3/datasets/CO",
                                    "title": "Comments",
                                    "type": "SDTM Dataset"
                                },
                                "parentProduct": {
                                    "href": "/mdr/sdtmig/3-3",
                                    "title": "Study Data Tabulation Model Implementation Guide: Human Clinical Trials Version 3.3 (Final)",
                                    "type": "Implementation Guide"
                                },
                                "priorVersion": {
                                    "href": "/mdr/sdtmig/3-2/datasets/CO/variables/IDVAR",
                                    "title": "Identifying Variable",
                                    "type": "SDTM Dataset Variable"
                                },
                                "rootItem": {
                                    "href": "/mdr/root/sdtmig/datasets/CO/variables/IDVAR",
                                    "title": "Version-agnostic anchor resource for SDTMIG variable CO.IDVAR",
                                    "type": "Root Data Element"
                                },
                                "self": {
                                    "href": "/mdr/sdtmig/3-3/datasets/CO/variables/IDVAR",
                                    "title": "Identifying Variable",
                                    "type": "SDTM Dataset Variable"
                                }
                            },
                            "core": "Perm",
                            "description": "Identifying variable in the parent dataset that identifies the record(s) to which the comment applies. Examples AESEQ or CMGRPID. Used only when individual comments are related to domain records. Null for comments collected on separate CRFs.",
                            "label": "Identifying Variable",
                            "name": "IDVAR",
                            "ordinal": "6",
                            "role": "Record Qualifier",
                            "simpleDatatype": "Char"
                        },
                        {
                            "_links": {
                                "modelDatasetVariable": {
                                    "href": "/mdr/sdtm/1-7/datasets/CO/variables/IDVARVAL",
                                    "title": "Identifying Variable Value",
                                    "type": "SDTM Dataset Variable"
                                },
                                "parentDataset": {
                                    "href": "/mdr/sdtmig/3-3/datasets/CO",
                                    "title": "Comments",
                                    "type": "SDTM Dataset"
                                },
                                "parentProduct": {
                                    "href": "/mdr/sdtmig/3-3",
                                    "title": "Study Data Tabulation Model Implementation Guide: Human Clinical Trials Version 3.3 (Final)",
                                    "type": "Implementation Guide"
                                },
                                "priorVersion": {
                                    "href": "/mdr/sdtmig/3-2/datasets/CO/variables/IDVARVAL",
                                    "title": "Identifying Variable Value",
                                    "type": "SDTM Dataset Variable"
                                },
                                "rootItem": {
                                    "href": "/mdr/root/sdtmig/datasets/CO/variables/IDVARVAL",
                                    "title": "Version-agnostic anchor resource for SDTMIG variable CO.IDVARVAL",
                                    "type": "Root Data Element"
                                },
                                "self": {
                                    "href": "/mdr/sdtmig/3-3/datasets/CO/variables/IDVARVAL",
                                    "title": "Identifying Variable Value",
                                    "type": "SDTM Dataset Variable"
                                }
                            },
                            "core": "Perm",
                            "description": "Value of identifying variable of the parent record(s). Used only when individual comments are related to domain records. Null for comments collected on separate CRFs.",
                            "label": "Identifying Variable Value",
                            "name": "IDVARVAL",
                            "ordinal": "7",
                            "role": "Record Qualifier",
                            "simpleDatatype": "Char"
                        },
                        {
                            "_links": {
                                "modelDatasetVariable": {
                                    "href": "/mdr/sdtm/1-7/datasets/CO/variables/COREF",
                                    "title": "Comment Reference",
                                    "type": "SDTM Dataset Variable"
                                },
                                "parentDataset": {
                                    "href": "/mdr/sdtmig/3-3/datasets/CO",
                                    "title": "Comments",
                                    "type": "SDTM Dataset"
                                },
                                "parentProduct": {
                                    "href": "/mdr/sdtmig/3-3",
                                    "title": "Study Data Tabulation Model Implementation Guide: Human Clinical Trials Version 3.3 (Final)",
                                    "type": "Implementation Guide"
                                },
                                "priorVersion": {
                                    "href": "/mdr/sdtmig/3-2/datasets/CO/variables/COREF",
                                    "title": "Comment Reference",
                                    "type": "SDTM Dataset Variable"
                                },
                                "rootItem": {
                                    "href": "/mdr/root/sdtmig/datasets/CO/variables/COREF",
                                    "title": "Version-agnostic anchor resource for SDTMIG variable CO.COREF",
                                    "type": "Root Data Element"
                                },
                                "self": {
                                    "href": "/mdr/sdtmig/3-3/datasets/CO/variables/COREF",
                                    "title": "Comment Reference",
                                    "type": "SDTM Dataset Variable"
                                }
                            },
                            "core": "Perm",
                            "description": "Sponsor-defined reference associated with the comment. May be the CRF page number (e.g., 650), or a module name (e.g., DEMOG), or a combination of information that identifies the reference (e.g. 650-VITALS-VISIT 2).",
                            "label": "Comment Reference",
                            "name": "COREF",
                            "ordinal": "8",
                            "role": "Record Qualifier",
                            "simpleDatatype": "Char"
                        },
                        {
                            "_links": {
                                "modelDatasetVariable": {
                                    "href": "/mdr/sdtm/1-7/datasets/CO/variables/COVAL",
                                    "title": "Comment",
                                    "type": "SDTM Dataset Variable"
                                },
                                "parentDataset": {
                                    "href": "/mdr/sdtmig/3-3/datasets/CO",
                                    "title": "Comments",
                                    "type": "SDTM Dataset"
                                },
                                "parentProduct": {
                                    "href": "/mdr/sdtmig/3-3",
                                    "title": "Study Data Tabulation Model Implementation Guide: Human Clinical Trials Version 3.3 (Final)",
                                    "type": "Implementation Guide"
                                },
                                "priorVersion": {
                                    "href": "/mdr/sdtmig/3-2/datasets/CO/variables/COVAL",
                                    "title": "Comment",
                                    "type": "SDTM Dataset Variable"
                                },
                                "rootItem": {
                                    "href": "/mdr/root/sdtmig/datasets/CO/variables/COVAL",
                                    "title": "Version-agnostic anchor resource for SDTMIG variable CO.COVAL",
                                    "type": "Root Data Element"
                                },
                                "self": {
                                    "href": "/mdr/sdtmig/3-3/datasets/CO/variables/COVAL",
                                    "title": "Comment",
                                    "type": "SDTM Dataset Variable"
                                }
                            },
                            "core": "Req",
                            "description": "The text of the comment. Text over 200 characters can be added to additional columns COVAL1-COVALn. See Assumption 3.",
                            "label": "Comment",
                            "name": "COVAL",
                            "ordinal": "9",
                            "role": "Topic",
                            "simpleDatatype": "Char"
                        },
                        {
                            "_links": {
                                "modelDatasetVariable": {
                                    "href": "/mdr/sdtm/1-7/datasets/CO/variables/COEVAL",
                                    "title": "Evaluator",
                                    "type": "SDTM Dataset Variable"
                                },
                                "parentDataset": {
                                    "href": "/mdr/sdtmig/3-3/datasets/CO",
                                    "title": "Comments",
                                    "type": "SDTM Dataset"
                                },
                                "parentProduct": {
                                    "href": "/mdr/sdtmig/3-3",
                                    "title": "Study Data Tabulation Model Implementation Guide: Human Clinical Trials Version 3.3 (Final)",
                                    "type": "Implementation Guide"
                                },
                                "priorVersion": {
                                    "href": "/mdr/sdtmig/3-2/datasets/CO/variables/COEVAL",
                                    "title": "Evaluator",
                                    "type": "SDTM Dataset Variable"
                                },
                                "rootItem": {
                                    "href": "/mdr/root/sdtmig/datasets/CO/variables/COEVAL",
                                    "title": "Version-agnostic anchor resource for SDTMIG variable CO.COEVAL",
                                    "type": "Root Data Element"
                                },
                                "self": {
                                    "href": "/mdr/sdtmig/3-3/datasets/CO/variables/COEVAL",
                                    "title": "Evaluator",
                                    "type": "SDTM Dataset Variable"
                                }
                            },
                            "core": "Perm",
                            "description": "Used to describe the originator of the comment. Examples: CENTRAL, REVIEWER, ADJUDICATION COMMITTEE, PRINCIPAL INVESTIGATOR.",
                            "label": "Evaluator",
                            "name": "COEVAL",
                            "ordinal": "10",
                            "role": "Record Qualifier",
                            "simpleDatatype": "Char"
                        },
                        {
                            "_links": {
                                "codelist": [
                                    {
                                        "href": "/mdr/root/ct/sdtmct/codelists/C96777",
                                        "title": "Version-agnostic anchor resource for codelist C96777",
                                        "type": "Root Value Domain"
                                    }
                                ],
                                "modelDatasetVariable": {
                                    "href": "/mdr/sdtm/1-7/datasets/CO/variables/COEVALID",
                                    "title": "Evaluator Identifier",
                                    "type": "SDTM Dataset Variable"
                                },
                                "parentDataset": {
                                    "href": "/mdr/sdtmig/3-3/datasets/CO",
                                    "title": "Comments",
                                    "type": "SDTM Dataset"
                                },
                                "parentProduct": {
                                    "href": "/mdr/sdtmig/3-3",
                                    "title": "Study Data Tabulation Model Implementation Guide: Human Clinical Trials Version 3.3 (Final)",
                                    "type": "Implementation Guide"
                                },
                                "rootItem": {
                                    "href": "/mdr/root/sdtmig/datasets/CO/variables/COEVALID",
                                    "title": "Version-agnostic anchor resource for SDTMIG variable CO.COEVALID",
                                    "type": "Root Data Element"
                                },
                                "self": {
                                    "href": "/mdr/sdtmig/3-3/datasets/CO/variables/COEVALID",
                                    "title": "Evaluator Identifier",
                                    "type": "SDTM Dataset Variable"
                                }
                            },
                            "core": "Perm",
                            "description": "Used to distinguish multiple evaluators with the same role recorded in --EVAL. Examples: RADIOLOGIST, RADIOLOGIST1, RADIOLOGIST2.",
                            "label": "Evaluator Identifier",
                            "name": "COEVALID",
                            "ordinal": "11",
                            "role": "Record Qualifier",
                            "simpleDatatype": "Char"
                        },
                        {
                            "_links": {
                                "modelDatasetVariable": {
                                    "href": "/mdr/sdtm/1-7/datasets/CO/variables/CODTC",
                                    "title": "Date/Time of Comment",
                                    "type": "SDTM Dataset Variable"
                                },
                                "parentDataset": {
                                    "href": "/mdr/sdtmig/3-3/datasets/CO",
                                    "title": "Comments",
                                    "type": "SDTM Dataset"
                                },
                                "parentProduct": {
                                    "href": "/mdr/sdtmig/3-3",
                                    "title": "Study Data Tabulation Model Implementation Guide: Human Clinical Trials Version 3.3 (Final)",
                                    "type": "Implementation Guide"
                                },
                                "priorVersion": {
                                    "href": "/mdr/sdtmig/3-2/datasets/CO/variables/CODTC",
                                    "title": "Date/Time of Comment",
                                    "type": "SDTM Dataset Variable"
                                },
                                "rootItem": {
                                    "href": "/mdr/root/sdtmig/datasets/CO/variables/CODTC",
                                    "title": "Version-agnostic anchor resource for SDTMIG variable CO.CODTC",
                                    "type": "Root Data Element"
                                },
                                "self": {
                                    "href": "/mdr/sdtmig/3-3/datasets/CO/variables/CODTC",
                                    "title": "Date/Time of Comment",
                                    "type": "SDTM Dataset Variable"
                                }
                            },
                            "core": "Perm",
                            "describedValueDomain": "ISO 8601",
                            "description": "Date/time of comment on dedicated comment form. Should be null if this is a child record of another domain or if comment date was not collected.",
                            "label": "Date/Time of Comment",
                            "name": "CODTC",
                            "ordinal": "12",
                            "role": "Timing",
                            "simpleDatatype": "Char"
                        },
                        {
                            "_links": {
                                "modelDatasetVariable": {
                                    "href": "/mdr/sdtm/1-7/datasets/CO/variables/CODY",
                                    "title": "Study Day of Comment",
                                    "type": "SDTM Dataset Variable"
                                },
                                "parentDataset": {
                                    "href": "/mdr/sdtmig/3-3/datasets/CO",
                                    "title": "Comments",
                                    "type": "SDTM Dataset"
                                },
                                "parentProduct": {
                                    "href": "/mdr/sdtmig/3-3",
                                    "title": "Study Data Tabulation Model Implementation Guide: Human Clinical Trials Version 3.3 (Final)",
                                    "type": "Implementation Guide"
                                },
                                "rootItem": {
                                    "href": "/mdr/root/sdtmig/datasets/CO/variables/CODY",
                                    "title": "Version-agnostic anchor resource for SDTMIG variable CO.CODY",
                                    "type": "Root Data Element"
                                },
                                "self": {
                                    "href": "/mdr/sdtmig/3-3/datasets/CO/variables/CODY",
                                    "title": "Study Day of Comment",
                                    "type": "SDTM Dataset Variable"
                                }
                            },
                            "core": "Perm",
                            "description": "Study day of the comment, in integer days. The algorithm for calculations must be relative to the sponsor-defined RFSTDTC variable in the Demographics (DM) domain.",
                            "label": "Study Day of Comment",
                            "name": "CODY",
                            "ordinal": "13",
                            "role": "Timing",
                            "simpleDatatype": "Num"
                        }
                    ],
                    "description": "A special-purpose domain that contains comments that may be collected alongside other data. (Source: CDISC Controlled Terminology, DOMAIN, C49569, 2018-06-29)",
                    "label": "Comments",
                    "name": "CO",
                    "ordinal": "1"
                },
                {
                    "_links": {
                        "modelDataset": {
                            "href": "/mdr/sdtm/1-7/datasets/DM",
                            "title": "Demographics",
                            "type": "SDTM Dataset"
                        },
                        "parentClass": {
                            "href": "/mdr/sdtmig/3-3/classes/SpecialPurpose",
                            "title": "Special-Purpose Datasets",
                            "type": "Class"
                        },
                        "parentProduct": {
                            "href": "/mdr/sdtmig/3-3",
                            "title": "Study Data Tabulation Model Implementation Guide: Human Clinical Trials Version 3.3 (Final)",
                            "type": "Implementation Guide"
                        },
                        "priorVersion": {
                            "href": "/mdr/sdtmig/3-2/datasets/DM",
                            "title": "Demographics",
                            "type": "SDTM Dataset"
                        },
                        "self": {
                            "href": "/mdr/sdtmig/3-3/datasets/DM",
                            "title": "Demographics",
                            "type": "SDTM Dataset"
                        }
                    },
                    "datasetStructure": "One record per subject",
                    "datasetVariables": [
                        {
                            "_links": {
                                "modelDatasetVariable": {
                                    "href": "/mdr/sdtm/1-7/datasets/DM/variables/STUDYID",
                                    "title": "Study Identifier",
                                    "type": "SDTM Dataset Variable"
                                },
                                "parentDataset": {
                                    "href": "/mdr/sdtmig/3-3/datasets/DM",
                                    "title": "Demographics",
                                    "type": "SDTM Dataset"
                                },
                                "parentProduct": {
                                    "href": "/mdr/sdtmig/3-3",
                                    "title": "Study Data Tabulation Model Implementation Guide: Human Clinical Trials Version 3.3 (Final)",
                                    "type": "Implementation Guide"
                                },
                                "priorVersion": {
                                    "href": "/mdr/sdtmig/3-2/datasets/DM/variables/STUDYID",
                                    "title": "Study Identifier",
                                    "type": "SDTM Dataset Variable"
                                },
                                "rootItem": {
                                    "href": "/mdr/root/sdtmig/datasets/DM/variables/STUDYID",
                                    "title": "Version-agnostic anchor resource for SDTMIG variable DM.STUDYID",
                                    "type": "Root Data Element"
                                },
                                "self": {
                                    "href": "/mdr/sdtmig/3-3/datasets/DM/variables/STUDYID",
                                    "title": "Study Identifier",
                                    "type": "SDTM Dataset Variable"
                                }
                            },
                            "core": "Req",
                            "description": "Unique identifier for a study.",
                            "label": "Study Identifier",
                            "name": "STUDYID",
                            "ordinal": "1",
                            "role": "Identifier",
                            "simpleDatatype": "Char"
                        },
                        {
                            "_links": {
                                "modelDatasetVariable": {
                                    "href": "/mdr/sdtm/1-7/datasets/DM/variables/DOMAIN",
                                    "title": "Domain Abbreviation",
                                    "type": "SDTM Dataset Variable"
                                },
                                "parentDataset": {
                                    "href": "/mdr/sdtmig/3-3/datasets/DM",
                                    "title": "Demographics",
                                    "type": "SDTM Dataset"
                                },
                                "parentProduct": {
                                    "href": "/mdr/sdtmig/3-3",
                                    "title": "Study Data Tabulation Model Implementation Guide: Human Clinical Trials Version 3.3 (Final)",
                                    "type": "Implementation Guide"
                                },
                                "priorVersion": {
                                    "href": "/mdr/sdtmig/3-2/datasets/DM/variables/DOMAIN",
                                    "title": "Domain Abbreviation",
                                    "type": "SDTM Dataset Variable"
                                },
                                "rootItem": {
                                    "href": "/mdr/root/sdtmig/datasets/DM/variables/DOMAIN",
                                    "title": "Version-agnostic anchor resource for SDTMIG variable DM.DOMAIN",
                                    "type": "Root Data Element"
                                },
                                "self": {
                                    "href": "/mdr/sdtmig/3-3/datasets/DM/variables/DOMAIN",
                                    "title": "Domain Abbreviation",
                                    "type": "SDTM Dataset Variable"
                                }
                            },
                            "core": "Req",
                            "description": "Two-character abbreviation for the domain.",
                            "label": "Domain Abbreviation",
                            "name": "DOMAIN",
                            "ordinal": "2",
                            "role": "Identifier",
                            "simpleDatatype": "Char",
                            "valueList": [
                                "DM"
                            ]
                        },
                        {
                            "_links": {
                                "modelDatasetVariable": {
                                    "href": "/mdr/sdtm/1-7/datasets/DM/variables/USUBJID",
                                    "title": "Unique Subject Identifier",
                                    "type": "SDTM Dataset Variable"
                                },
                                "parentDataset": {
                                    "href": "/mdr/sdtmig/3-3/datasets/DM",
                                    "title": "Demographics",
                                    "type": "SDTM Dataset"
                                },
                                "parentProduct": {
                                    "href": "/mdr/sdtmig/3-3",
                                    "title": "Study Data Tabulation Model Implementation Guide: Human Clinical Trials Version 3.3 (Final)",
                                    "type": "Implementation Guide"
                                },
                                "priorVersion": {
                                    "href": "/mdr/sdtmig/3-2/datasets/DM/variables/USUBJID",
                                    "title": "Unique Subject Identifier",
                                    "type": "SDTM Dataset Variable"
                                },
                                "rootItem": {
                                    "href": "/mdr/root/sdtmig/datasets/DM/variables/USUBJID",
                                    "title": "Version-agnostic anchor resource for SDTMIG variable DM.USUBJID",
                                    "type": "Root Data Element"
                                },
                                "self": {
                                    "href": "/mdr/sdtmig/3-3/datasets/DM/variables/USUBJID",
                                    "title": "Unique Subject Identifier",
                                    "type": "SDTM Dataset Variable"
                                }
                            },
                            "core": "Req",
                            "description": "Identifier used to uniquely identify a subject across all studies for all applications or submissions involving the product. This must be a unique number, and could be a compound identifier formed by concatenating STUDYID-SITEID-SUBJID.",
                            "label": "Unique Subject Identifier",
                            "name": "USUBJID",
                            "ordinal": "3",
                            "role": "Identifier",
                            "simpleDatatype": "Char"
                        },
                        {
                            "_links": {
                                "modelDatasetVariable": {
                                    "href": "/mdr/sdtm/1-7/datasets/DM/variables/SUBJID",
                                    "title": "Subject Identifier for the Study",
                                    "type": "SDTM Dataset Variable"
                                },
                                "parentDataset": {
                                    "href": "/mdr/sdtmig/3-3/datasets/DM",
                                    "title": "Demographics",
                                    "type": "SDTM Dataset"
                                },
                                "parentProduct": {
                                    "href": "/mdr/sdtmig/3-3",
                                    "title": "Study Data Tabulation Model Implementation Guide: Human Clinical Trials Version 3.3 (Final)",
                                    "type": "Implementation Guide"
                                },
                                "priorVersion": {
                                    "href": "/mdr/sdtmig/3-2/datasets/DM/variables/SUBJID",
                                    "title": "Subject Identifier for the Study",
                                    "type": "SDTM Dataset Variable"
                                },
                                "rootItem": {
                                    "href": "/mdr/root/sdtmig/datasets/DM/variables/SUBJID",
                                    "title": "Version-agnostic anchor resource for SDTMIG variable DM.SUBJID",
                                    "type": "Root Data Element"
                                },
                                "self": {
                                    "href": "/mdr/sdtmig/3-3/datasets/DM/variables/SUBJID",
                                    "title": "Subject Identifier for the Study",
                                    "type": "SDTM Dataset Variable"
                                }
                            },
                            "core": "Req",
                            "description": "Subject identifier, which must be unique within the study. Often the ID of the subject as recorded on a CRF.",
                            "label": "Subject Identifier for the Study",
                            "name": "SUBJID",
                            "ordinal": "4",
                            "role": "Topic",
                            "simpleDatatype": "Char"
                        },
                        {
                            "_links": {
                                "modelDatasetVariable": {
                                    "href": "/mdr/sdtm/1-7/datasets/DM/variables/RFSTDTC",
                                    "title": "Subject Reference Start Date/Time",
                                    "type": "SDTM Dataset Variable"
                                },
                                "parentDataset": {
                                    "href": "/mdr/sdtmig/3-3/datasets/DM",
                                    "title": "Demographics",
                                    "type": "SDTM Dataset"
                                },
                                "parentProduct": {
                                    "href": "/mdr/sdtmig/3-3",
                                    "title": "Study Data Tabulation Model Implementation Guide: Human Clinical Trials Version 3.3 (Final)",
                                    "type": "Implementation Guide"
                                },
                                "priorVersion": {
                                    "href": "/mdr/sdtmig/3-2/datasets/DM/variables/RFSTDTC",
                                    "title": "Subject Reference Start Date/Time",
                                    "type": "SDTM Dataset Variable"
                                },
                                "rootItem": {
                                    "href": "/mdr/root/sdtmig/datasets/DM/variables/RFSTDTC",
                                    "title": "Version-agnostic anchor resource for SDTMIG variable DM.RFSTDTC",
                                    "type": "Root Data Element"
                                },
                                "self": {
                                    "href": "/mdr/sdtmig/3-3/datasets/DM/variables/RFSTDTC",
                                    "title": "Subject Reference Start Date/Time",
                                    "type": "SDTM Dataset Variable"
                                }
                            },
                            "core": "Exp",
                            "describedValueDomain": "ISO 8601",
                            "description": "Reference Start Date/time for the subject in ISO 8601 character format. Usually equivalent to date/time when subject was first exposed to study treatment. See Assumption 9 for additional detail on when RFSTDTC may be null.",
                            "label": "Subject Reference Start Date/Time",
                            "name": "RFSTDTC",
                            "ordinal": "5",
                            "role": "Record Qualifier",
                            "simpleDatatype": "Char"
                        },
                        {
                            "_links": {
                                "modelDatasetVariable": {
                                    "href": "/mdr/sdtm/1-7/datasets/DM/variables/RFENDTC",
                                    "title": "Subject Reference End Date/Time",
                                    "type": "SDTM Dataset Variable"
                                },
                                "parentDataset": {
                                    "href": "/mdr/sdtmig/3-3/datasets/DM",
                                    "title": "Demographics",
                                    "type": "SDTM Dataset"
                                },
                                "parentProduct": {
                                    "href": "/mdr/sdtmig/3-3",
                                    "title": "Study Data Tabulation Model Implementation Guide: Human Clinical Trials Version 3.3 (Final)",
                                    "type": "Implementation Guide"
                                },
                                "priorVersion": {
                                    "href": "/mdr/sdtmig/3-2/datasets/DM/variables/RFENDTC",
                                    "title": "Subject Reference End Date/Time",
                                    "type": "SDTM Dataset Variable"
                                },
                                "rootItem": {
                                    "href": "/mdr/root/sdtmig/datasets/DM/variables/RFENDTC",
                                    "title": "Version-agnostic anchor resource for SDTMIG variable DM.RFENDTC",
                                    "type": "Root Data Element"
                                },
                                "self": {
                                    "href": "/mdr/sdtmig/3-3/datasets/DM/variables/RFENDTC",
                                    "title": "Subject Reference End Date/Time",
                                    "type": "SDTM Dataset Variable"
                                }
                            },
                            "core": "Exp",
                            "describedValueDomain": "ISO 8601",
                            "description": "Reference End Date/time for the subject in ISO 8601 character format. Usually equivalent to the date/time when subject was determined to have ended the trial, and often equivalent to date/time of last exposure to study treatment. Required for all randomized subjects; null for screen failures or unassigned subjects.",
                            "label": "Subject Reference End Date/Time",
                            "name": "RFENDTC",
                            "ordinal": "6",
                            "role": "Record Qualifier",
                            "simpleDatatype": "Char"
                        },
                        {
                            "_links": {
                                "modelDatasetVariable": {
                                    "href": "/mdr/sdtm/1-7/datasets/DM/variables/RFXSTDTC",
                                    "title": "Date/Time of First Study Treatment",
                                    "type": "SDTM Dataset Variable"
                                },
                                "parentDataset": {
                                    "href": "/mdr/sdtmig/3-3/datasets/DM",
                                    "title": "Demographics",
                                    "type": "SDTM Dataset"
                                },
                                "parentProduct": {
                                    "href": "/mdr/sdtmig/3-3",
                                    "title": "Study Data Tabulation Model Implementation Guide: Human Clinical Trials Version 3.3 (Final)",
                                    "type": "Implementation Guide"
                                },
                                "priorVersion": {
                                    "href": "/mdr/sdtmig/3-2/datasets/DM/variables/RFXSTDTC",
                                    "title": "Date/Time of First Study Treatment",
                                    "type": "SDTM Dataset Variable"
                                },
                                "rootItem": {
                                    "href": "/mdr/root/sdtmig/datasets/DM/variables/RFXSTDTC",
                                    "title": "Version-agnostic anchor resource for SDTMIG variable DM.RFXSTDTC",
                                    "type": "Root Data Element"
                                },
                                "self": {
                                    "href": "/mdr/sdtmig/3-3/datasets/DM/variables/RFXSTDTC",
                                    "title": "Date/Time of First Study Treatment",
                                    "type": "SDTM Dataset Variable"
                                }
                            },
                            "core": "Exp",
                            "describedValueDomain": "ISO 8601",
                            "description": "First date/time of exposure to any protocol-specified treatment or therapy, equal to the earliest value of EXSTDTC.",
                            "label": "Date/Time of First Study Treatment",
                            "name": "RFXSTDTC",
                            "ordinal": "7",
                            "role": "Record Qualifier",
                            "simpleDatatype": "Char"
                        },
                        {
                            "_links": {
                                "modelDatasetVariable": {
                                    "href": "/mdr/sdtm/1-7/datasets/DM/variables/RFXENDTC",
                                    "title": "Date/Time of Last Study Treatment",
                                    "type": "SDTM Dataset Variable"
                                },
                                "parentDataset": {
                                    "href": "/mdr/sdtmig/3-3/datasets/DM",
                                    "title": "Demographics",
                                    "type": "SDTM Dataset"
                                },
                                "parentProduct": {
                                    "href": "/mdr/sdtmig/3-3",
                                    "title": "Study Data Tabulation Model Implementation Guide: Human Clinical Trials Version 3.3 (Final)",
                                    "type": "Implementation Guide"
                                },
                                "priorVersion": {
                                    "href": "/mdr/sdtmig/3-2/datasets/DM/variables/RFXENDTC",
                                    "title": "Date/Time of Last Study Treatment",
                                    "type": "SDTM Dataset Variable"
                                },
                                "rootItem": {
                                    "href": "/mdr/root/sdtmig/datasets/DM/variables/RFXENDTC",
                                    "title": "Version-agnostic anchor resource for SDTMIG variable DM.RFXENDTC",
                                    "type": "Root Data Element"
                                },
                                "self": {
                                    "href": "/mdr/sdtmig/3-3/datasets/DM/variables/RFXENDTC",
                                    "title": "Date/Time of Last Study Treatment",
                                    "type": "SDTM Dataset Variable"
                                }
                            },
                            "core": "Exp",
                            "describedValueDomain": "ISO 8601",
                            "description": "Last date/time of exposure to any protocol-specified treatment or therapy, equal to the latest value of EXENDTC (or the latest value of EXSTDTC if EXENDTC was not collected or is missing).",
                            "label": "Date/Time of Last Study Treatment",
                            "name": "RFXENDTC",
                            "ordinal": "8",
                            "role": "Record Qualifier",
                            "simpleDatatype": "Char"
                        },
                        {
                            "_links": {
                                "modelDatasetVariable": {
                                    "href": "/mdr/sdtm/1-7/datasets/DM/variables/RFICDTC",
                                    "title": "Date/Time of Informed Consent",
                                    "type": "SDTM Dataset Variable"
                                },
                                "parentDataset": {
                                    "href": "/mdr/sdtmig/3-3/datasets/DM",
                                    "title": "Demographics",
                                    "type": "SDTM Dataset"
                                },
                                "parentProduct": {
                                    "href": "/mdr/sdtmig/3-3",
                                    "title": "Study Data Tabulation Model Implementation Guide: Human Clinical Trials Version 3.3 (Final)",
                                    "type": "Implementation Guide"
                                },
                                "priorVersion": {
                                    "href": "/mdr/sdtmig/3-2/datasets/DM/variables/RFICDTC",
                                    "title": "Date/Time of Informed Consent",
                                    "type": "SDTM Dataset Variable"
                                },
                                "rootItem": {
                                    "href": "/mdr/root/sdtmig/datasets/DM/variables/RFICDTC",
                                    "title": "Version-agnostic anchor resource for SDTMIG variable DM.RFICDTC",
                                    "type": "Root Data Element"
                                },
                                "self": {
                                    "href": "/mdr/sdtmig/3-3/datasets/DM/variables/RFICDTC",
                                    "title": "Date/Time of Informed Consent",
                                    "type": "SDTM Dataset Variable"
                                }
                            },
                            "core": "Exp",
                            "describedValueDomain": "ISO 8601",
                            "description": "Date/time of informed consent in ISO 8601 character format. This will be the same as the date of informed consent in the Disposition domain, if that protocol milestone is documented. Would be null only in studies not collecting the date of informed consent.",
                            "label": "Date/Time of Informed Consent",
                            "name": "RFICDTC",
                            "ordinal": "9",
                            "role": "Record Qualifier",
                            "simpleDatatype": "Char"
                        },
                        {
                            "_links": {
                                "modelDatasetVariable": {
                                    "href": "/mdr/sdtm/1-7/datasets/DM/variables/RFPENDTC",
                                    "title": "Date/Time of End of Participation",
                                    "type": "SDTM Dataset Variable"
                                },
                                "parentDataset": {
                                    "href": "/mdr/sdtmig/3-3/datasets/DM",
                                    "title": "Demographics",
                                    "type": "SDTM Dataset"
                                },
                                "parentProduct": {
                                    "href": "/mdr/sdtmig/3-3",
                                    "title": "Study Data Tabulation Model Implementation Guide: Human Clinical Trials Version 3.3 (Final)",
                                    "type": "Implementation Guide"
                                },
                                "priorVersion": {
                                    "href": "/mdr/sdtmig/3-2/datasets/DM/variables/RFPENDTC",
                                    "title": "Date/Time of End of Participation",
                                    "type": "SDTM Dataset Variable"
                                },
                                "rootItem": {
                                    "href": "/mdr/root/sdtmig/datasets/DM/variables/RFPENDTC",
                                    "title": "Version-agnostic anchor resource for SDTMIG variable DM.RFPENDTC",
                                    "type": "Root Data Element"
                                },
                                "self": {
                                    "href": "/mdr/sdtmig/3-3/datasets/DM/variables/RFPENDTC",
                                    "title": "Date/Time of End of Participation",
                                    "type": "SDTM Dataset Variable"
                                }
                            },
                            "core": "Exp",
                            "describedValueDomain": "ISO 8601",
                            "description": "Date/time when subject ended participation or follow-up in a trial, as defined in the protocol, in ISO 8601 character format. Should correspond to the last known date of contact. Examples include completion date, withdrawal date, last follow-up, date recorded for lost to follow up, or death date.",
                            "label": "Date/Time of End of Participation",
                            "name": "RFPENDTC",
                            "ordinal": "10",
                            "role": "Record Qualifier",
                            "simpleDatatype": "Char"
                        },
                        {
                            "_links": {
                                "modelDatasetVariable": {
                                    "href": "/mdr/sdtm/1-7/datasets/DM/variables/DTHDTC",
                                    "title": "Date/Time of Death",
                                    "type": "SDTM Dataset Variable"
                                },
                                "parentDataset": {
                                    "href": "/mdr/sdtmig/3-3/datasets/DM",
                                    "title": "Demographics",
                                    "type": "SDTM Dataset"
                                },
                                "parentProduct": {
                                    "href": "/mdr/sdtmig/3-3",
                                    "title": "Study Data Tabulation Model Implementation Guide: Human Clinical Trials Version 3.3 (Final)",
                                    "type": "Implementation Guide"
                                },
                                "priorVersion": {
                                    "href": "/mdr/sdtmig/3-2/datasets/DM/variables/DTHDTC",
                                    "title": "Date/Time of Death",
                                    "type": "SDTM Dataset Variable"
                                },
                                "rootItem": {
                                    "href": "/mdr/root/sdtmig/datasets/DM/variables/DTHDTC",
                                    "title": "Version-agnostic anchor resource for SDTMIG variable DM.DTHDTC",
                                    "type": "Root Data Element"
                                },
                                "self": {
                                    "href": "/mdr/sdtmig/3-3/datasets/DM/variables/DTHDTC",
                                    "title": "Date/Time of Death",
                                    "type": "SDTM Dataset Variable"
                                }
                            },
                            "core": "Exp",
                            "describedValueDomain": "ISO 8601",
                            "description": "Date/time of death for any subject who died, in ISO 8601 format. Should represent the date/time that is captured in the clinical-trial database.",
                            "label": "Date/Time of Death",
                            "name": "DTHDTC",
                            "ordinal": "11",
                            "role": "Record Qualifier",
                            "simpleDatatype": "Char"
                        },
                        {
                            "_links": {
                                "codelist": [
                                    {
                                        "href": "/mdr/root/ct/sdtmct/codelists/C66742",
                                        "title": "Version-agnostic anchor resource for codelist C66742",
                                        "type": "Root Value Domain"
                                    }
                                ],
                                "modelDatasetVariable": {
                                    "href": "/mdr/sdtm/1-7/datasets/DM/variables/DTHFL",
                                    "title": "Subject Death Flag",
                                    "type": "SDTM Dataset Variable"
                                },
                                "parentDataset": {
                                    "href": "/mdr/sdtmig/3-3/datasets/DM",
                                    "title": "Demographics",
                                    "type": "SDTM Dataset"
                                },
                                "parentProduct": {
                                    "href": "/mdr/sdtmig/3-3",
                                    "title": "Study Data Tabulation Model Implementation Guide: Human Clinical Trials Version 3.3 (Final)",
                                    "type": "Implementation Guide"
                                },
                                "priorVersion": {
                                    "href": "/mdr/sdtmig/3-2/datasets/DM/variables/DTHFL",
                                    "title": "Subject Death Flag",
                                    "type": "SDTM Dataset Variable"
                                },
                                "rootItem": {
                                    "href": "/mdr/root/sdtmig/datasets/DM/variables/DTHFL",
                                    "title": "Version-agnostic anchor resource for SDTMIG variable DM.DTHFL",
                                    "type": "Root Data Element"
                                },
                                "self": {
                                    "href": "/mdr/sdtmig/3-3/datasets/DM/variables/DTHFL",
                                    "title": "Subject Death Flag",
                                    "type": "SDTM Dataset Variable"
                                }
                            },
                            "core": "Exp",
                            "description": "Indicates the subject died. Should be \"Y\" or null. Should be populated even when the death date is unknown.",
                            "label": "Subject Death Flag",
                            "name": "DTHFL",
                            "ordinal": "12",
                            "role": "Record Qualifier",
                            "simpleDatatype": "Char"
                        },
                        {
                            "_links": {
                                "modelDatasetVariable": {
                                    "href": "/mdr/sdtm/1-7/datasets/DM/variables/SITEID",
                                    "title": "Study Site Identifier",
                                    "type": "SDTM Dataset Variable"
                                },
                                "parentDataset": {
                                    "href": "/mdr/sdtmig/3-3/datasets/DM",
                                    "title": "Demographics",
                                    "type": "SDTM Dataset"
                                },
                                "parentProduct": {
                                    "href": "/mdr/sdtmig/3-3",
                                    "title": "Study Data Tabulation Model Implementation Guide: Human Clinical Trials Version 3.3 (Final)",
                                    "type": "Implementation Guide"
                                },
                                "priorVersion": {
                                    "href": "/mdr/sdtmig/3-2/datasets/DM/variables/SITEID",
                                    "title": "Study Site Identifier",
                                    "type": "SDTM Dataset Variable"
                                },
                                "rootItem": {
                                    "href": "/mdr/root/sdtmig/datasets/DM/variables/SITEID",
                                    "title": "Version-agnostic anchor resource for SDTMIG variable DM.SITEID",
                                    "type": "Root Data Element"
                                },
                                "self": {
                                    "href": "/mdr/sdtmig/3-3/datasets/DM/variables/SITEID",
                                    "title": "Study Site Identifier",
                                    "type": "SDTM Dataset Variable"
                                }
                            },
                            "core": "Req",
                            "description": "Unique identifier for a site within a study.",
                            "label": "Study Site Identifier",
                            "name": "SITEID",
                            "ordinal": "13",
                            "role": "Record Qualifier",
                            "simpleDatatype": "Char"
                        },
                        {
                            "_links": {
                                "modelDatasetVariable": {
                                    "href": "/mdr/sdtm/1-7/datasets/DM/variables/INVID",
                                    "title": "Investigator Identifier",
                                    "type": "SDTM Dataset Variable"
                                },
                                "parentDataset": {
                                    "href": "/mdr/sdtmig/3-3/datasets/DM",
                                    "title": "Demographics",
                                    "type": "SDTM Dataset"
                                },
                                "parentProduct": {
                                    "href": "/mdr/sdtmig/3-3",
                                    "title": "Study Data Tabulation Model Implementation Guide: Human Clinical Trials Version 3.3 (Final)",
                                    "type": "Implementation Guide"
                                },
                                "priorVersion": {
                                    "href": "/mdr/sdtmig/3-2/datasets/DM/variables/INVID",
                                    "title": "Investigator Identifier",
                                    "type": "SDTM Dataset Variable"
                                },
                                "rootItem": {
                                    "href": "/mdr/root/sdtmig/datasets/DM/variables/INVID",
                                    "title": "Version-agnostic anchor resource for SDTMIG variable DM.INVID",
                                    "type": "Root Data Element"
                                },
                                "self": {
                                    "href": "/mdr/sdtmig/3-3/datasets/DM/variables/INVID",
                                    "title": "Investigator Identifier",
                                    "type": "SDTM Dataset Variable"
                                }
                            },
                            "core": "Perm",
                            "description": "An identifier to describe the Investigator for the study. May be used in addition to SITEID. Not needed if SITEID is equivalent to INVID.",
                            "label": "Investigator Identifier",
                            "name": "INVID",
                            "ordinal": "14",
                            "role": "Record Qualifier",
                            "simpleDatatype": "Char"
                        },
                        {
                            "_links": {
                                "modelDatasetVariable": {
                                    "href": "/mdr/sdtm/1-7/datasets/DM/variables/INVNAM",
                                    "title": "Investigator Name",
                                    "type": "SDTM Dataset Variable"
                                },
                                "parentDataset": {
                                    "href": "/mdr/sdtmig/3-3/datasets/DM",
                                    "title": "Demographics",
                                    "type": "SDTM Dataset"
                                },
                                "parentProduct": {
                                    "href": "/mdr/sdtmig/3-3",
                                    "title": "Study Data Tabulation Model Implementation Guide: Human Clinical Trials Version 3.3 (Final)",
                                    "type": "Implementation Guide"
                                },
                                "priorVersion": {
                                    "href": "/mdr/sdtmig/3-2/datasets/DM/variables/INVNAM",
                                    "title": "Investigator Name",
                                    "type": "SDTM Dataset Variable"
                                },
                                "rootItem": {
                                    "href": "/mdr/root/sdtmig/datasets/DM/variables/INVNAM",
                                    "title": "Version-agnostic anchor resource for SDTMIG variable DM.INVNAM",
                                    "type": "Root Data Element"
                                },
                                "self": {
                                    "href": "/mdr/sdtmig/3-3/datasets/DM/variables/INVNAM",
                                    "title": "Investigator Name",
                                    "type": "SDTM Dataset Variable"
                                }
                            },
                            "core": "Perm",
                            "description": "Name of the investigator for a site.",
                            "label": "Investigator Name",
                            "name": "INVNAM",
                            "ordinal": "15",
                            "role": "Synonym Qualifier",
                            "simpleDatatype": "Char"
                        },
                        {
                            "_links": {
                                "modelDatasetVariable": {
                                    "href": "/mdr/sdtm/1-7/datasets/DM/variables/BRTHDTC",
                                    "title": "Date/Time of Birth",
                                    "type": "SDTM Dataset Variable"
                                },
                                "parentDataset": {
                                    "href": "/mdr/sdtmig/3-3/datasets/DM",
                                    "title": "Demographics",
                                    "type": "SDTM Dataset"
                                },
                                "parentProduct": {
                                    "href": "/mdr/sdtmig/3-3",
                                    "title": "Study Data Tabulation Model Implementation Guide: Human Clinical Trials Version 3.3 (Final)",
                                    "type": "Implementation Guide"
                                },
                                "priorVersion": {
                                    "href": "/mdr/sdtmig/3-2/datasets/DM/variables/BRTHDTC",
                                    "title": "Date/Time of Birth",
                                    "type": "SDTM Dataset Variable"
                                },
                                "rootItem": {
                                    "href": "/mdr/root/sdtmig/datasets/DM/variables/BRTHDTC",
                                    "title": "Version-agnostic anchor resource for SDTMIG variable DM.BRTHDTC",
                                    "type": "Root Data Element"
                                },
                                "self": {
                                    "href": "/mdr/sdtmig/3-3/datasets/DM/variables/BRTHDTC",
                                    "title": "Date/Time of Birth",
                                    "type": "SDTM Dataset Variable"
                                }
                            },
                            "core": "Perm",
                            "describedValueDomain": "ISO 8601",
                            "description": "Date/time of birth of the subject.",
                            "label": "Date/Time of Birth",
                            "name": "BRTHDTC",
                            "ordinal": "16",
                            "role": "Record Qualifier",
                            "simpleDatatype": "Char"
                        },
                        {
                            "_links": {
                                "modelDatasetVariable": {
                                    "href": "/mdr/sdtm/1-7/datasets/DM/variables/AGE",
                                    "title": "Age",
                                    "type": "SDTM Dataset Variable"
                                },
                                "parentDataset": {
                                    "href": "/mdr/sdtmig/3-3/datasets/DM",
                                    "title": "Demographics",
                                    "type": "SDTM Dataset"
                                },
                                "parentProduct": {
                                    "href": "/mdr/sdtmig/3-3",
                                    "title": "Study Data Tabulation Model Implementation Guide: Human Clinical Trials Version 3.3 (Final)",
                                    "type": "Implementation Guide"
                                },
                                "priorVersion": {
                                    "href": "/mdr/sdtmig/3-2/datasets/DM/variables/AGE",
                                    "title": "Age",
                                    "type": "SDTM Dataset Variable"
                                },
                                "rootItem": {
                                    "href": "/mdr/root/sdtmig/datasets/DM/variables/AGE",
                                    "title": "Version-agnostic anchor resource for SDTMIG variable DM.AGE",
                                    "type": "Root Data Element"
                                },
                                "self": {
                                    "href": "/mdr/sdtmig/3-3/datasets/DM/variables/AGE",
                                    "title": "Age",
                                    "type": "SDTM Dataset Variable"
                                }
                            },
                            "core": "Exp",
                            "description": "Age expressed in AGEU. May be derived from RFSTDTC and BRTHDTC, but BRTHDTC may not be available in all cases (due to subject privacy concerns).",
                            "label": "Age",
                            "name": "AGE",
                            "ordinal": "17",
                            "role": "Record Qualifier",
                            "simpleDatatype": "Num"
                        },
                        {
                            "_links": {
                                "codelist": [
                                    {
                                        "href": "/mdr/root/ct/sdtmct/codelists/C66781",
                                        "title": "Version-agnostic anchor resource for codelist C66781",
                                        "type": "Root Value Domain"
                                    }
                                ],
                                "modelDatasetVariable": {
                                    "href": "/mdr/sdtm/1-7/datasets/DM/variables/AGEU",
                                    "title": "Age Units",
                                    "type": "SDTM Dataset Variable"
                                },
                                "parentDataset": {
                                    "href": "/mdr/sdtmig/3-3/datasets/DM",
                                    "title": "Demographics",
                                    "type": "SDTM Dataset"
                                },
                                "parentProduct": {
                                    "href": "/mdr/sdtmig/3-3",
                                    "title": "Study Data Tabulation Model Implementation Guide: Human Clinical Trials Version 3.3 (Final)",
                                    "type": "Implementation Guide"
                                },
                                "priorVersion": {
                                    "href": "/mdr/sdtmig/3-2/datasets/DM/variables/AGEU",
                                    "title": "Age Units",
                                    "type": "SDTM Dataset Variable"
                                },
                                "rootItem": {
                                    "href": "/mdr/root/sdtmig/datasets/DM/variables/AGEU",
                                    "title": "Version-agnostic anchor resource for SDTMIG variable DM.AGEU",
                                    "type": "Root Data Element"
                                },
                                "self": {
                                    "href": "/mdr/sdtmig/3-3/datasets/DM/variables/AGEU",
                                    "title": "Age Units",
                                    "type": "SDTM Dataset Variable"
                                }
                            },
                            "core": "Exp",
                            "description": "Units associated with AGE.",
                            "label": "Age Units",
                            "name": "AGEU",
                            "ordinal": "18",
                            "role": "Variable Qualifier",
                            "simpleDatatype": "Char"
                        },
                        {
                            "_links": {
                                "codelist": [
                                    {
                                        "href": "/mdr/root/ct/sdtmct/codelists/C66731",
                                        "title": "Version-agnostic anchor resource for codelist C66731",
                                        "type": "Root Value Domain"
                                    }
                                ],
                                "modelDatasetVariable": {
                                    "href": "/mdr/sdtm/1-7/datasets/DM/variables/SEX",
                                    "title": "Sex",
                                    "type": "SDTM Dataset Variable"
                                },
                                "parentDataset": {
                                    "href": "/mdr/sdtmig/3-3/datasets/DM",
                                    "title": "Demographics",
                                    "type": "SDTM Dataset"
                                },
                                "parentProduct": {
                                    "href": "/mdr/sdtmig/3-3",
                                    "title": "Study Data Tabulation Model Implementation Guide: Human Clinical Trials Version 3.3 (Final)",
                                    "type": "Implementation Guide"
                                },
                                "priorVersion": {
                                    "href": "/mdr/sdtmig/3-2/datasets/DM/variables/SEX",
                                    "title": "Sex",
                                    "type": "SDTM Dataset Variable"
                                },
                                "rootItem": {
                                    "href": "/mdr/root/sdtmig/datasets/DM/variables/SEX",
                                    "title": "Version-agnostic anchor resource for SDTMIG variable DM.SEX",
                                    "type": "Root Data Element"
                                },
                                "self": {
                                    "href": "/mdr/sdtmig/3-3/datasets/DM/variables/SEX",
                                    "title": "Sex",
                                    "type": "SDTM Dataset Variable"
                                }
                            },
                            "core": "Req",
                            "description": "Sex of the subject.",
                            "label": "Sex",
                            "name": "SEX",
                            "ordinal": "19",
                            "role": "Record Qualifier",
                            "simpleDatatype": "Char"
                        },
                        {
                            "_links": {
                                "codelist": [
                                    {
                                        "href": "/mdr/root/ct/sdtmct/codelists/C74457",
                                        "title": "Version-agnostic anchor resource for codelist C74457",
                                        "type": "Root Value Domain"
                                    }
                                ],
                                "modelDatasetVariable": {
                                    "href": "/mdr/sdtm/1-7/datasets/DM/variables/RACE",
                                    "title": "Race",
                                    "type": "SDTM Dataset Variable"
                                },
                                "parentDataset": {
                                    "href": "/mdr/sdtmig/3-3/datasets/DM",
                                    "title": "Demographics",
                                    "type": "SDTM Dataset"
                                },
                                "parentProduct": {
                                    "href": "/mdr/sdtmig/3-3",
                                    "title": "Study Data Tabulation Model Implementation Guide: Human Clinical Trials Version 3.3 (Final)",
                                    "type": "Implementation Guide"
                                },
                                "priorVersion": {
                                    "href": "/mdr/sdtmig/3-2/datasets/DM/variables/RACE",
                                    "title": "Race",
                                    "type": "SDTM Dataset Variable"
                                },
                                "rootItem": {
                                    "href": "/mdr/root/sdtmig/datasets/DM/variables/RACE",
                                    "title": "Version-agnostic anchor resource for SDTMIG variable DM.RACE",
                                    "type": "Root Data Element"
                                },
                                "self": {
                                    "href": "/mdr/sdtmig/3-3/datasets/DM/variables/RACE",
                                    "title": "Race",
                                    "type": "SDTM Dataset Variable"
                                }
                            },
                            "core": "Exp",
                            "description": "Race of the subject. Sponsors should refer to \"Collection of Race and Ethnicity Data in Clinical Trials\" (FDA, October, 2016) for guidance regarding the collection of race (https://www.fda.gov/downloads/regulatoryinformation/guidances/ucm126396.pdf) See Assumption below regarding RACE.",
                            "label": "Race",
                            "name": "RACE",
                            "ordinal": "20",
                            "role": "Record Qualifier",
                            "simpleDatatype": "Char"
                        },
                        {
                            "_links": {
                                "codelist": [
                                    {
                                        "href": "/mdr/root/ct/sdtmct/codelists/C66790",
                                        "title": "Version-agnostic anchor resource for codelist C66790",
                                        "type": "Root Value Domain"
                                    }
                                ],
                                "modelDatasetVariable": {
                                    "href": "/mdr/sdtm/1-7/datasets/DM/variables/ETHNIC",
                                    "title": "Ethnicity",
                                    "type": "SDTM Dataset Variable"
                                },
                                "parentDataset": {
                                    "href": "/mdr/sdtmig/3-3/datasets/DM",
                                    "title": "Demographics",
                                    "type": "SDTM Dataset"
                                },
                                "parentProduct": {
                                    "href": "/mdr/sdtmig/3-3",
                                    "title": "Study Data Tabulation Model Implementation Guide: Human Clinical Trials Version 3.3 (Final)",
                                    "type": "Implementation Guide"
                                },
                                "priorVersion": {
                                    "href": "/mdr/sdtmig/3-2/datasets/DM/variables/ETHNIC",
                                    "title": "Ethnicity",
                                    "type": "SDTM Dataset Variable"
                                },
                                "rootItem": {
                                    "href": "/mdr/root/sdtmig/datasets/DM/variables/ETHNIC",
                                    "title": "Version-agnostic anchor resource for SDTMIG variable DM.ETHNIC",
                                    "type": "Root Data Element"
                                },
                                "self": {
                                    "href": "/mdr/sdtmig/3-3/datasets/DM/variables/ETHNIC",
                                    "title": "Ethnicity",
                                    "type": "SDTM Dataset Variable"
                                }
                            },
                            "core": "Perm",
                            "description": "The ethnicity of the subject. Sponsors should refer to \"Collection of Race and Ethnicity Data in Clinical Trials\" (FDA, October, 2016) for guidance regarding the collection of ethnicity (https://www.fda.gov/downloads/regulatoryinformation/guidances/ucm126396.pdf).",
                            "label": "Ethnicity",
                            "name": "ETHNIC",
                            "ordinal": "21",
                            "role": "Record Qualifier",
                            "simpleDatatype": "Char"
                        },
                        {
                            "_links": {
                                "modelDatasetVariable": {
                                    "href": "/mdr/sdtm/1-7/datasets/DM/variables/ARMCD",
                                    "title": "Planned Arm Code",
                                    "type": "SDTM Dataset Variable"
                                },
                                "parentDataset": {
                                    "href": "/mdr/sdtmig/3-3/datasets/DM",
                                    "title": "Demographics",
                                    "type": "SDTM Dataset"
                                },
                                "parentProduct": {
                                    "href": "/mdr/sdtmig/3-3",
                                    "title": "Study Data Tabulation Model Implementation Guide: Human Clinical Trials Version 3.3 (Final)",
                                    "type": "Implementation Guide"
                                },
                                "priorVersion": {
                                    "href": "/mdr/sdtmig/3-2/datasets/DM/variables/ARMCD",
                                    "title": "Planned Arm Code",
                                    "type": "SDTM Dataset Variable"
                                },
                                "rootItem": {
                                    "href": "/mdr/root/sdtmig/datasets/DM/variables/ARMCD",
                                    "title": "Version-agnostic anchor resource for SDTMIG variable DM.ARMCD",
                                    "type": "Root Data Element"
                                },
                                "self": {
                                    "href": "/mdr/sdtmig/3-3/datasets/DM/variables/ARMCD",
                                    "title": "Planned Arm Code",
                                    "type": "SDTM Dataset Variable"
                                }
                            },
                            "core": "Exp",
                            "description": "ARMCD is limited to 20 characters. It is not subject to the character restrictions that apply to TESTCD.The maximum length of ARMCD is longer than for other \"short\" variables to accommodate the kind of values that are likely to be needed for crossover trials. For example, if ARMCD values for a seven-period crossover were constructed using two-character abbreviations for each treatment and separating hyphens, the length of ARMCD values would be 20. If the subject was not assigned to an Arm, ARMCD is null and ARMNRS is populated.\nWith the exception of studies which use multi-stage Arm assignments, must be a value of ARMCD in the Trial Arms Dataset.",
                            "label": "Planned Arm Code",
                            "name": "ARMCD",
                            "ordinal": "22",
                            "role": "Record Qualifier",
                            "simpleDatatype": "Char"
                        },
                        {
                            "_links": {
                                "modelDatasetVariable": {
                                    "href": "/mdr/sdtm/1-7/datasets/DM/variables/ARM",
                                    "title": "Description of Planned Arm",
                                    "type": "SDTM Dataset Variable"
                                },
                                "parentDataset": {
                                    "href": "/mdr/sdtmig/3-3/datasets/DM",
                                    "title": "Demographics",
                                    "type": "SDTM Dataset"
                                },
                                "parentProduct": {
                                    "href": "/mdr/sdtmig/3-3",
                                    "title": "Study Data Tabulation Model Implementation Guide: Human Clinical Trials Version 3.3 (Final)",
                                    "type": "Implementation Guide"
                                },
                                "priorVersion": {
                                    "href": "/mdr/sdtmig/3-2/datasets/DM/variables/ARM",
                                    "title": "Description of Planned Arm",
                                    "type": "SDTM Dataset Variable"
                                },
                                "rootItem": {
                                    "href": "/mdr/root/sdtmig/datasets/DM/variables/ARM",
                                    "title": "Version-agnostic anchor resource for SDTMIG variable DM.ARM",
                                    "type": "Root Data Element"
                                },
                                "self": {
                                    "href": "/mdr/sdtmig/3-3/datasets/DM/variables/ARM",
                                    "title": "Description of Planned Arm",
                                    "type": "SDTM Dataset Variable"
                                }
                            },
                            "core": "Exp",
                            "description": "Name of the Arm to which the subject was assigned. If the subject was not assigned to an Arm, ARM is null and ARMNRS is populated.\nWith the exception of studies which use multi-stage Arm assignments, must be a value of ARM in the Trial Arms Dataset.",
                            "label": "Description of Planned Arm",
                            "name": "ARM",
                            "ordinal": "23",
                            "role": "Synonym Qualifier",
                            "simpleDatatype": "Char"
                        },
                        {
                            "_links": {
                                "modelDatasetVariable": {
                                    "href": "/mdr/sdtm/1-7/datasets/DM/variables/ACTARMCD",
                                    "title": "Actual Arm Code",
                                    "type": "SDTM Dataset Variable"
                                },
                                "parentDataset": {
                                    "href": "/mdr/sdtmig/3-3/datasets/DM",
                                    "title": "Demographics",
                                    "type": "SDTM Dataset"
                                },
                                "parentProduct": {
                                    "href": "/mdr/sdtmig/3-3",
                                    "title": "Study Data Tabulation Model Implementation Guide: Human Clinical Trials Version 3.3 (Final)",
                                    "type": "Implementation Guide"
                                },
                                "priorVersion": {
                                    "href": "/mdr/sdtmig/3-2/datasets/DM/variables/ACTARMCD",
                                    "title": "Actual Arm Code",
                                    "type": "SDTM Dataset Variable"
                                },
                                "rootItem": {
                                    "href": "/mdr/root/sdtmig/datasets/DM/variables/ACTARMCD",
                                    "title": "Version-agnostic anchor resource for SDTMIG variable DM.ACTARMCD",
                                    "type": "Root Data Element"
                                },
                                "self": {
                                    "href": "/mdr/sdtmig/3-3/datasets/DM/variables/ACTARMCD",
                                    "title": "Actual Arm Code",
                                    "type": "SDTM Dataset Variable"
                                }
                            },
                            "core": "Exp",
                            "description": "Code of actual Arm. ACTARMCD is limited to 20 characters. It is not subject to the character restrictions that apply to TESTCD. The maximum length of ACTARMCD is longer than for other short variables to accommodate the kind of values that are likely to be needed for crossover trials.\nWith the exception of studies which use multi-stage Arm assignments, must be a value of ARMCD in the Trial Arms Dataset.\nIf the subject was not assigned to an Arm or followed a course not described by any planned Arm, ACTARMCD is null and ARMNRS is populated.",
                            "label": "Actual Arm Code",
                            "name": "ACTARMCD",
                            "ordinal": "24",
                            "role": "Record Qualifier",
                            "simpleDatatype": "Char"
                        },
                        {
                            "_links": {
                                "modelDatasetVariable": {
                                    "href": "/mdr/sdtm/1-7/datasets/DM/variables/ACTARM",
                                    "title": "Description of Actual Arm",
                                    "type": "SDTM Dataset Variable"
                                },
                                "parentDataset": {
                                    "href": "/mdr/sdtmig/3-3/datasets/DM",
                                    "title": "Demographics",
                                    "type": "SDTM Dataset"
                                },
                                "parentProduct": {
                                    "href": "/mdr/sdtmig/3-3",
                                    "title": "Study Data Tabulation Model Implementation Guide: Human Clinical Trials Version 3.3 (Final)",
                                    "type": "Implementation Guide"
                                },
                                "priorVersion": {
                                    "href": "/mdr/sdtmig/3-2/datasets/DM/variables/ACTARM",
                                    "title": "Description of Actual Arm",
                                    "type": "SDTM Dataset Variable"
                                },
                                "rootItem": {
                                    "href": "/mdr/root/sdtmig/datasets/DM/variables/ACTARM",
                                    "title": "Version-agnostic anchor resource for SDTMIG variable DM.ACTARM",
                                    "type": "Root Data Element"
                                },
                                "self": {
                                    "href": "/mdr/sdtmig/3-3/datasets/DM/variables/ACTARM",
                                    "title": "Description of Actual Arm",
                                    "type": "SDTM Dataset Variable"
                                }
                            },
                            "core": "Exp",
                            "description": "Description of actual Arm.\nWith the exception of studies which use multi-stage Arm assignments, must be a value of ARM in the Trial Arms Dataset.\nIf the subject was not assigned to an Arm or followed a course not described by any planned Arm, ACTARM is null and ARMNRS is populated.",
                            "label": "Description of Actual Arm",
                            "name": "ACTARM",
                            "ordinal": "25",
                            "role": "Synonym Qualifier",
                            "simpleDatatype": "Char"
                        },
                        {
                            "_links": {
                                "modelDatasetVariable": {
                                    "href": "/mdr/sdtm/1-7/datasets/DM/variables/ARMNRS",
                                    "title": "Reason Arm and/or Actual Arm is Null",
                                    "type": "SDTM Dataset Variable"
                                },
                                "parentDataset": {
                                    "href": "/mdr/sdtmig/3-3/datasets/DM",
                                    "title": "Demographics",
                                    "type": "SDTM Dataset"
                                },
                                "parentProduct": {
                                    "href": "/mdr/sdtmig/3-3",
                                    "title": "Study Data Tabulation Model Implementation Guide: Human Clinical Trials Version 3.3 (Final)",
                                    "type": "Implementation Guide"
                                },
                                "rootItem": {
                                    "href": "/mdr/root/sdtmig/datasets/DM/variables/ARMNRS",
                                    "title": "Version-agnostic anchor resource for SDTMIG variable DM.ARMNRS",
                                    "type": "Root Data Element"
                                },
                                "self": {
                                    "href": "/mdr/sdtmig/3-3/datasets/DM/variables/ARMNRS",
                                    "title": "Reason Arm and/or Actual Arm is Null",
                                    "type": "SDTM Dataset Variable"
                                }
                            },
                            "core": "Exp",
                            "description": "A coded reason that Arm variables (ARM and ARMCD) and/or actual Arm variables (ACTARM and ACTARMCD) are null. Examples: \"SCREEN FAILURE\", \"NOT ASSIGNED\", \"ASSIGNED, NOT TREATED\", \"UNPLANNED TREATMENT\". It is assumed that if the Arm and actual Arm variables are null, the same reason applies to both Arm and actual Arm.",
                            "label": "Reason Arm and/or Actual Arm is Null",
                            "name": "ARMNRS",
                            "ordinal": "26",
                            "role": "Record Qualifier",
                            "simpleDatatype": "Char"
                        },
                        {
                            "_links": {
                                "modelDatasetVariable": {
                                    "href": "/mdr/sdtm/1-7/datasets/DM/variables/ACTARMUD",
                                    "title": "Description of Unplanned Actual Arm",
                                    "type": "SDTM Dataset Variable"
                                },
                                "parentDataset": {
                                    "href": "/mdr/sdtmig/3-3/datasets/DM",
                                    "title": "Demographics",
                                    "type": "SDTM Dataset"
                                },
                                "parentProduct": {
                                    "href": "/mdr/sdtmig/3-3",
                                    "title": "Study Data Tabulation Model Implementation Guide: Human Clinical Trials Version 3.3 (Final)",
                                    "type": "Implementation Guide"
                                },
                                "rootItem": {
                                    "href": "/mdr/root/sdtmig/datasets/DM/variables/ACTARMUD",
                                    "title": "Version-agnostic anchor resource for SDTMIG variable DM.ACTARMUD",
                                    "type": "Root Data Element"
                                },
                                "self": {
                                    "href": "/mdr/sdtmig/3-3/datasets/DM/variables/ACTARMUD",
                                    "title": "Description of Unplanned Actual Arm",
                                    "type": "SDTM Dataset Variable"
                                }
                            },
                            "core": "Exp",
                            "description": "A description of actual treatment for a subject who did not receive treatment described in one of the planned trial Arms.",
                            "label": "Description of Unplanned Actual Arm",
                            "name": "ACTARMUD",
                            "ordinal": "27",
                            "role": "Record Qualifier",
                            "simpleDatatype": "Char"
                        },
                        {
                            "_links": {
                                "modelDatasetVariable": {
                                    "href": "/mdr/sdtm/1-7/datasets/DM/variables/COUNTRY",
                                    "title": "Country",
                                    "type": "SDTM Dataset Variable"
                                },
                                "parentDataset": {
                                    "href": "/mdr/sdtmig/3-3/datasets/DM",
                                    "title": "Demographics",
                                    "type": "SDTM Dataset"
                                },
                                "parentProduct": {
                                    "href": "/mdr/sdtmig/3-3",
                                    "title": "Study Data Tabulation Model Implementation Guide: Human Clinical Trials Version 3.3 (Final)",
                                    "type": "Implementation Guide"
                                },
                                "priorVersion": {
                                    "href": "/mdr/sdtmig/3-2/datasets/DM/variables/COUNTRY",
                                    "title": "Country",
                                    "type": "SDTM Dataset Variable"
                                },
                                "rootItem": {
                                    "href": "/mdr/root/sdtmig/datasets/DM/variables/COUNTRY",
                                    "title": "Version-agnostic anchor resource for SDTMIG variable DM.COUNTRY",
                                    "type": "Root Data Element"
                                },
                                "self": {
                                    "href": "/mdr/sdtmig/3-3/datasets/DM/variables/COUNTRY",
                                    "title": "Country",
                                    "type": "SDTM Dataset Variable"
                                }
                            },
                            "core": "Req",
                            "describedValueDomain": "ISO 3166-1 Alpha-3",
                            "description": "Country of the investigational site in which the subject participated in the trial.",
                            "label": "Country",
                            "name": "COUNTRY",
                            "ordinal": "28",
                            "role": "Record Qualifier",
                            "simpleDatatype": "Char"
                        },
                        {
                            "_links": {
                                "modelDatasetVariable": {
                                    "href": "/mdr/sdtm/1-7/datasets/DM/variables/DMDTC",
                                    "title": "Date/Time of Collection",
                                    "type": "SDTM Dataset Variable"
                                },
                                "parentDataset": {
                                    "href": "/mdr/sdtmig/3-3/datasets/DM",
                                    "title": "Demographics",
                                    "type": "SDTM Dataset"
                                },
                                "parentProduct": {
                                    "href": "/mdr/sdtmig/3-3",
                                    "title": "Study Data Tabulation Model Implementation Guide: Human Clinical Trials Version 3.3 (Final)",
                                    "type": "Implementation Guide"
                                },
                                "priorVersion": {
                                    "href": "/mdr/sdtmig/3-2/datasets/DM/variables/DMDTC",
                                    "title": "Date/Time of Collection",
                                    "type": "SDTM Dataset Variable"
                                },
                                "rootItem": {
                                    "href": "/mdr/root/sdtmig/datasets/DM/variables/DMDTC",
                                    "title": "Version-agnostic anchor resource for SDTMIG variable DM.DMDTC",
                                    "type": "Root Data Element"
                                },
                                "self": {
                                    "href": "/mdr/sdtmig/3-3/datasets/DM/variables/DMDTC",
                                    "title": "Date/Time of Collection",
                                    "type": "SDTM Dataset Variable"
                                }
                            },
                            "core": "Perm",
                            "describedValueDomain": "ISO 8601",
                            "description": "Date/time of demographic data collection.",
                            "label": "Date/Time of Collection",
                            "name": "DMDTC",
                            "ordinal": "29",
                            "role": "Timing",
                            "simpleDatatype": "Char"
                        },
                        {
                            "_links": {
                                "modelDatasetVariable": {
                                    "href": "/mdr/sdtm/1-7/datasets/DM/variables/DMDY",
                                    "title": "Study Day of Collection",
                                    "type": "SDTM Dataset Variable"
                                },
                                "parentDataset": {
                                    "href": "/mdr/sdtmig/3-3/datasets/DM",
                                    "title": "Demographics",
                                    "type": "SDTM Dataset"
                                },
                                "parentProduct": {
                                    "href": "/mdr/sdtmig/3-3",
                                    "title": "Study Data Tabulation Model Implementation Guide: Human Clinical Trials Version 3.3 (Final)",
                                    "type": "Implementation Guide"
                                },
                                "priorVersion": {
                                    "href": "/mdr/sdtmig/3-2/datasets/DM/variables/DMDY",
                                    "title": "Study Day of Collection",
                                    "type": "SDTM Dataset Variable"
                                },
                                "rootItem": {
                                    "href": "/mdr/root/sdtmig/datasets/DM/variables/DMDY",
                                    "title": "Version-agnostic anchor resource for SDTMIG variable DM.DMDY",
                                    "type": "Root Data Element"
                                },
                                "self": {
                                    "href": "/mdr/sdtmig/3-3/datasets/DM/variables/DMDY",
                                    "title": "Study Day of Collection",
                                    "type": "SDTM Dataset Variable"
                                }
                            },
                            "core": "Perm",
                            "description": "Study day of collection measured as integer days.",
                            "label": "Study Day of Collection",
                            "name": "DMDY",
                            "ordinal": "30",
                            "role": "Timing",
                            "simpleDatatype": "Num"
                        }
                    ],
                    "description": "A special-purpose domain that includes a set of essential standard variables that describe each subject in a clinical study. It is the parent domain for all other observations for human clinical subjects. (Source: CDISC Controlled Terminology, DOMAIN, C49572, 2018-06-29)",
                    "label": "Demographics",
                    "name": "DM",
                    "ordinal": "2"
                },
                {
                    "_links": {
                        "modelDataset": {
                            "href": "/mdr/sdtm/1-7/datasets/SE",
                            "title": "Subject Element",
                            "type": "SDTM Dataset"
                        },
                        "parentClass": {
                            "href": "/mdr/sdtmig/3-3/classes/SpecialPurpose",
                            "title": "Special-Purpose Datasets",
                            "type": "Class"
                        },
                        "parentProduct": {
                            "href": "/mdr/sdtmig/3-3",
                            "title": "Study Data Tabulation Model Implementation Guide: Human Clinical Trials Version 3.3 (Final)",
                            "type": "Implementation Guide"
                        },
                        "priorVersion": {
                            "href": "/mdr/sdtmig/3-2/datasets/SE",
                            "title": "Subject Elements",
                            "type": "SDTM Dataset"
                        },
                        "self": {
                            "href": "/mdr/sdtmig/3-3/datasets/SE",
                            "title": "Subject Elements",
                            "type": "SDTM Dataset"
                        }
                    },
                    "datasetStructure": "One record per actual Element per subject",
                    "datasetVariables": [
                        {
                            "_links": {
                                "modelDatasetVariable": {
                                    "href": "/mdr/sdtm/1-7/datasets/SE/variables/STUDYID",
                                    "title": "Study Identifier",
                                    "type": "SDTM Dataset Variable"
                                },
                                "parentDataset": {
                                    "href": "/mdr/sdtmig/3-3/datasets/SE",
                                    "title": "Subject Elements",
                                    "type": "SDTM Dataset"
                                },
                                "parentProduct": {
                                    "href": "/mdr/sdtmig/3-3",
                                    "title": "Study Data Tabulation Model Implementation Guide: Human Clinical Trials Version 3.3 (Final)",
                                    "type": "Implementation Guide"
                                },
                                "priorVersion": {
                                    "href": "/mdr/sdtmig/3-2/datasets/SE/variables/STUDYID",
                                    "title": "Study Identifier",
                                    "type": "SDTM Dataset Variable"
                                },
                                "rootItem": {
                                    "href": "/mdr/root/sdtmig/datasets/SE/variables/STUDYID",
                                    "title": "Version-agnostic anchor resource for SDTMIG variable SE.STUDYID",
                                    "type": "Root Data Element"
                                },
                                "self": {
                                    "href": "/mdr/sdtmig/3-3/datasets/SE/variables/STUDYID",
                                    "title": "Study Identifier",
                                    "type": "SDTM Dataset Variable"
                                }
                            },
                            "core": "Req",
                            "description": "Unique identifier for a study.",
                            "label": "Study Identifier",
                            "name": "STUDYID",
                            "ordinal": "1",
                            "role": "Identifier",
                            "simpleDatatype": "Char"
                        },
                        {
                            "_links": {
                                "modelDatasetVariable": {
                                    "href": "/mdr/sdtm/1-7/datasets/SE/variables/DOMAIN",
                                    "title": "Domain Abbreviation",
                                    "type": "SDTM Dataset Variable"
                                },
                                "parentDataset": {
                                    "href": "/mdr/sdtmig/3-3/datasets/SE",
                                    "title": "Subject Elements",
                                    "type": "SDTM Dataset"
                                },
                                "parentProduct": {
                                    "href": "/mdr/sdtmig/3-3",
                                    "title": "Study Data Tabulation Model Implementation Guide: Human Clinical Trials Version 3.3 (Final)",
                                    "type": "Implementation Guide"
                                },
                                "priorVersion": {
                                    "href": "/mdr/sdtmig/3-2/datasets/SE/variables/DOMAIN",
                                    "title": "Domain Abbreviation",
                                    "type": "SDTM Dataset Variable"
                                },
                                "rootItem": {
                                    "href": "/mdr/root/sdtmig/datasets/SE/variables/DOMAIN",
                                    "title": "Version-agnostic anchor resource for SDTMIG variable SE.DOMAIN",
                                    "type": "Root Data Element"
                                },
                                "self": {
                                    "href": "/mdr/sdtmig/3-3/datasets/SE/variables/DOMAIN",
                                    "title": "Domain Abbreviation",
                                    "type": "SDTM Dataset Variable"
                                }
                            },
                            "core": "Req",
                            "description": "Two-character abbreviation for the domain.",
                            "label": "Domain Abbreviation",
                            "name": "DOMAIN",
                            "ordinal": "2",
                            "role": "Identifier",
                            "simpleDatatype": "Char",
                            "valueList": [
                                "SE"
                            ]
                        },
                        {
                            "_links": {
                                "modelDatasetVariable": {
                                    "href": "/mdr/sdtm/1-7/datasets/SE/variables/USUBJID",
                                    "title": "Unique Subject Identifier",
                                    "type": "SDTM Dataset Variable"
                                },
                                "parentDataset": {
                                    "href": "/mdr/sdtmig/3-3/datasets/SE",
                                    "title": "Subject Elements",
                                    "type": "SDTM Dataset"
                                },
                                "parentProduct": {
                                    "href": "/mdr/sdtmig/3-3",
                                    "title": "Study Data Tabulation Model Implementation Guide: Human Clinical Trials Version 3.3 (Final)",
                                    "type": "Implementation Guide"
                                },
                                "priorVersion": {
                                    "href": "/mdr/sdtmig/3-2/datasets/SE/variables/USUBJID",
                                    "title": "Unique Subject Identifier",
                                    "type": "SDTM Dataset Variable"
                                },
                                "rootItem": {
                                    "href": "/mdr/root/sdtmig/datasets/SE/variables/USUBJID",
                                    "title": "Version-agnostic anchor resource for SDTMIG variable SE.USUBJID",
                                    "type": "Root Data Element"
                                },
                                "self": {
                                    "href": "/mdr/sdtmig/3-3/datasets/SE/variables/USUBJID",
                                    "title": "Unique Subject Identifier",
                                    "type": "SDTM Dataset Variable"
                                }
                            },
                            "core": "Req",
                            "description": "Identifier used to uniquely identify a subject across all studies for all applications or submissions involving the product.",
                            "label": "Unique Subject Identifier",
                            "name": "USUBJID",
                            "ordinal": "3",
                            "role": "Identifier",
                            "simpleDatatype": "Char"
                        },
                        {
                            "_links": {
                                "modelDatasetVariable": {
                                    "href": "/mdr/sdtm/1-7/datasets/SE/variables/SESEQ",
                                    "title": "Sequence Number",
                                    "type": "SDTM Dataset Variable"
                                },
                                "parentDataset": {
                                    "href": "/mdr/sdtmig/3-3/datasets/SE",
                                    "title": "Subject Elements",
                                    "type": "SDTM Dataset"
                                },
                                "parentProduct": {
                                    "href": "/mdr/sdtmig/3-3",
                                    "title": "Study Data Tabulation Model Implementation Guide: Human Clinical Trials Version 3.3 (Final)",
                                    "type": "Implementation Guide"
                                },
                                "priorVersion": {
                                    "href": "/mdr/sdtmig/3-2/datasets/SE/variables/SESEQ",
                                    "title": "Sequence Number",
                                    "type": "SDTM Dataset Variable"
                                },
                                "rootItem": {
                                    "href": "/mdr/root/sdtmig/datasets/SE/variables/SESEQ",
                                    "title": "Version-agnostic anchor resource for SDTMIG variable SE.SESEQ",
                                    "type": "Root Data Element"
                                },
                                "self": {
                                    "href": "/mdr/sdtmig/3-3/datasets/SE/variables/SESEQ",
                                    "title": "Sequence Number",
                                    "type": "SDTM Dataset Variable"
                                }
                            },
                            "core": "Req",
                            "description": "Sequence number given to ensure uniqueness of subject records within a domain. Should be assigned to be consistent chronological order.",
                            "label": "Sequence Number",
                            "name": "SESEQ",
                            "ordinal": "4",
                            "role": "Identifier",
                            "simpleDatatype": "Num"
                        },
                        {
                            "_links": {
                                "modelDatasetVariable": {
                                    "href": "/mdr/sdtm/1-7/datasets/SE/variables/ETCD",
                                    "title": "Element Code",
                                    "type": "SDTM Dataset Variable"
                                },
                                "parentDataset": {
                                    "href": "/mdr/sdtmig/3-3/datasets/SE",
                                    "title": "Subject Elements",
                                    "type": "SDTM Dataset"
                                },
                                "parentProduct": {
                                    "href": "/mdr/sdtmig/3-3",
                                    "title": "Study Data Tabulation Model Implementation Guide: Human Clinical Trials Version 3.3 (Final)",
                                    "type": "Implementation Guide"
                                },
                                "priorVersion": {
                                    "href": "/mdr/sdtmig/3-2/datasets/SE/variables/ETCD",
                                    "title": "Element Code",
                                    "type": "SDTM Dataset Variable"
                                },
                                "rootItem": {
                                    "href": "/mdr/root/sdtmig/datasets/SE/variables/ETCD",
                                    "title": "Version-agnostic anchor resource for SDTMIG variable SE.ETCD",
                                    "type": "Root Data Element"
                                },
                                "self": {
                                    "href": "/mdr/sdtmig/3-3/datasets/SE/variables/ETCD",
                                    "title": "Element Code",
                                    "type": "SDTM Dataset Variable"
                                }
                            },
                            "core": "Req",
                            "description": "1. ETCD (the companion to ELEMENT) is limited to 8 characters and does not have special character restrictions. These values should be short for ease of use in programming, but it is not expected that ETCD will need to serve as a variable name.\n2. If an encountered Element differs from the planned Element to the point that it is considered a new Element, then use \"UNPLAN\" as the value for ETCD to represent this Element.",
                            "label": "Element Code",
                            "name": "ETCD",
                            "ordinal": "5",
                            "role": "Topic",
                            "simpleDatatype": "Char"
                        },
                        {
                            "_links": {
                                "modelDatasetVariable": {
                                    "href": "/mdr/sdtm/1-7/datasets/SE/variables/ELEMENT",
                                    "title": "Description of Element",
                                    "type": "SDTM Dataset Variable"
                                },
                                "parentDataset": {
                                    "href": "/mdr/sdtmig/3-3/datasets/SE",
                                    "title": "Subject Elements",
                                    "type": "SDTM Dataset"
                                },
                                "parentProduct": {
                                    "href": "/mdr/sdtmig/3-3",
                                    "title": "Study Data Tabulation Model Implementation Guide: Human Clinical Trials Version 3.3 (Final)",
                                    "type": "Implementation Guide"
                                },
                                "priorVersion": {
                                    "href": "/mdr/sdtmig/3-2/datasets/SE/variables/ELEMENT",
                                    "title": "Description of Element",
                                    "type": "SDTM Dataset Variable"
                                },
                                "rootItem": {
                                    "href": "/mdr/root/sdtmig/datasets/SE/variables/ELEMENT",
                                    "title": "Version-agnostic anchor resource for SDTMIG variable SE.ELEMENT",
                                    "type": "Root Data Element"
                                },
                                "self": {
                                    "href": "/mdr/sdtmig/3-3/datasets/SE/variables/ELEMENT",
                                    "title": "Description of Element",
                                    "type": "SDTM Dataset Variable"
                                }
                            },
                            "core": "Perm",
                            "description": "The name of the Element. If ETCD has a value of \"UNPLAN\" then ELEMENT should be null.",
                            "label": "Description of Element",
                            "name": "ELEMENT",
                            "ordinal": "6",
                            "role": "Synonym Qualifier",
                            "simpleDatatype": "Char"
                        },
                        {
                            "_links": {
                                "modelDatasetVariable": {
                                    "href": "/mdr/sdtm/1-7/datasets/SE/variables/TAETORD",
                                    "title": "Planned Order of Element within Arm",
                                    "type": "SDTM Dataset Variable"
                                },
                                "parentDataset": {
                                    "href": "/mdr/sdtmig/3-3/datasets/SE",
                                    "title": "Subject Elements",
                                    "type": "SDTM Dataset"
                                },
                                "parentProduct": {
                                    "href": "/mdr/sdtmig/3-3",
                                    "title": "Study Data Tabulation Model Implementation Guide: Human Clinical Trials Version 3.3 (Final)",
                                    "type": "Implementation Guide"
                                },
                                "priorVersion": {
                                    "href": "/mdr/sdtmig/3-2/datasets/SE/variables/TAETORD",
                                    "title": "Planned Order of Element within Arm",
                                    "type": "SDTM Dataset Variable"
                                },
                                "rootItem": {
                                    "href": "/mdr/root/sdtmig/datasets/SE/variables/TAETORD",
                                    "title": "Version-agnostic anchor resource for SDTMIG variable SE.TAETORD",
                                    "type": "Root Data Element"
                                },
                                "self": {
                                    "href": "/mdr/sdtmig/3-3/datasets/SE/variables/TAETORD",
                                    "title": "Planned Order of Element within Arm",
                                    "type": "SDTM Dataset Variable"
                                }
                            },
                            "core": "Perm",
                            "description": "Number that gives the planned order of the Element within the subject's assigned Arm.",
                            "label": "Planned Order of Element within Arm",
                            "name": "TAETORD",
                            "ordinal": "7",
                            "role": "Timing",
                            "simpleDatatype": "Num"
                        },
                        {
                            "_links": {
                                "codelist": [
                                    {
                                        "href": "/mdr/root/ct/sdtmct/codelists/C99079",
                                        "title": "Version-agnostic anchor resource for codelist C99079",
                                        "type": "Root Value Domain"
                                    }
                                ],
                                "modelDatasetVariable": {
                                    "href": "/mdr/sdtm/1-7/datasets/SE/variables/EPOCH",
                                    "title": "Epoch",
                                    "type": "SDTM Dataset Variable"
                                },
                                "parentDataset": {
                                    "href": "/mdr/sdtmig/3-3/datasets/SE",
                                    "title": "Subject Elements",
                                    "type": "SDTM Dataset"
                                },
                                "parentProduct": {
                                    "href": "/mdr/sdtmig/3-3",
                                    "title": "Study Data Tabulation Model Implementation Guide: Human Clinical Trials Version 3.3 (Final)",
                                    "type": "Implementation Guide"
                                },
                                "priorVersion": {
                                    "href": "/mdr/sdtmig/3-2/datasets/SE/variables/EPOCH",
                                    "title": "Epoch",
                                    "type": "SDTM Dataset Variable"
                                },
                                "rootItem": {
                                    "href": "/mdr/root/sdtmig/datasets/SE/variables/EPOCH",
                                    "title": "Version-agnostic anchor resource for SDTMIG variable SE.EPOCH",
                                    "type": "Root Data Element"
                                },
                                "self": {
                                    "href": "/mdr/sdtmig/3-3/datasets/SE/variables/EPOCH",
                                    "title": "Epoch",
                                    "type": "SDTM Dataset Variable"
                                }
                            },
                            "core": "Perm",
                            "description": "Epoch associated with the Element in the planned sequence of Elements for the Arm to which the subject was assigned.",
                            "label": "Epoch",
                            "name": "EPOCH",
                            "ordinal": "8",
                            "role": "Timing",
                            "simpleDatatype": "Char"
                        },
                        {
                            "_links": {
                                "modelDatasetVariable": {
                                    "href": "/mdr/sdtm/1-7/datasets/SE/variables/SESTDTC",
                                    "title": "Start Date/Time of Element",
                                    "type": "SDTM Dataset Variable"
                                },
                                "parentDataset": {
                                    "href": "/mdr/sdtmig/3-3/datasets/SE",
                                    "title": "Subject Elements",
                                    "type": "SDTM Dataset"
                                },
                                "parentProduct": {
                                    "href": "/mdr/sdtmig/3-3",
                                    "title": "Study Data Tabulation Model Implementation Guide: Human Clinical Trials Version 3.3 (Final)",
                                    "type": "Implementation Guide"
                                },
                                "priorVersion": {
                                    "href": "/mdr/sdtmig/3-2/datasets/SE/variables/SESTDTC",
                                    "title": "Start Date/Time of Element",
                                    "type": "SDTM Dataset Variable"
                                },
                                "rootItem": {
                                    "href": "/mdr/root/sdtmig/datasets/SE/variables/SESTDTC",
                                    "title": "Version-agnostic anchor resource for SDTMIG variable SE.SESTDTC",
                                    "type": "Root Data Element"
                                },
                                "self": {
                                    "href": "/mdr/sdtmig/3-3/datasets/SE/variables/SESTDTC",
                                    "title": "Start Date/Time of Element",
                                    "type": "SDTM Dataset Variable"
                                }
                            },
                            "core": "Req",
                            "describedValueDomain": "ISO 8601",
                            "description": "Start date/time for an Element for each subject.",
                            "label": "Start Date/Time of Element",
                            "name": "SESTDTC",
                            "ordinal": "9",
                            "role": "Timing",
                            "simpleDatatype": "Char"
                        },
                        {
                            "_links": {
                                "modelDatasetVariable": {
                                    "href": "/mdr/sdtm/1-7/datasets/SE/variables/SEENDTC",
                                    "title": "End Date/Time of Element",
                                    "type": "SDTM Dataset Variable"
                                },
                                "parentDataset": {
                                    "href": "/mdr/sdtmig/3-3/datasets/SE",
                                    "title": "Subject Elements",
                                    "type": "SDTM Dataset"
                                },
                                "parentProduct": {
                                    "href": "/mdr/sdtmig/3-3",
                                    "title": "Study Data Tabulation Model Implementation Guide: Human Clinical Trials Version 3.3 (Final)",
                                    "type": "Implementation Guide"
                                },
                                "priorVersion": {
                                    "href": "/mdr/sdtmig/3-2/datasets/SE/variables/SEENDTC",
                                    "title": "End Date/Time of Element",
                                    "type": "SDTM Dataset Variable"
                                },
                                "rootItem": {
                                    "href": "/mdr/root/sdtmig/datasets/SE/variables/SEENDTC",
                                    "title": "Version-agnostic anchor resource for SDTMIG variable SE.SEENDTC",
                                    "type": "Root Data Element"
                                },
                                "self": {
                                    "href": "/mdr/sdtmig/3-3/datasets/SE/variables/SEENDTC",
                                    "title": "End Date/Time of Element",
                                    "type": "SDTM Dataset Variable"
                                }
                            },
                            "core": "Exp",
                            "describedValueDomain": "ISO 8601",
                            "description": "End date/time for an Element for each subject.",
                            "label": "End Date/Time of Element",
                            "name": "SEENDTC",
                            "ordinal": "10",
                            "role": "Timing",
                            "simpleDatatype": "Char"
                        },
                        {
                            "_links": {
                                "modelDatasetVariable": {
                                    "href": "/mdr/sdtm/1-7/datasets/SE/variables/SEUPDES",
                                    "title": "Description of Unplanned Element",
                                    "type": "SDTM Dataset Variable"
                                },
                                "parentDataset": {
                                    "href": "/mdr/sdtmig/3-3/datasets/SE",
                                    "title": "Subject Elements",
                                    "type": "SDTM Dataset"
                                },
                                "parentProduct": {
                                    "href": "/mdr/sdtmig/3-3",
                                    "title": "Study Data Tabulation Model Implementation Guide: Human Clinical Trials Version 3.3 (Final)",
                                    "type": "Implementation Guide"
                                },
                                "priorVersion": {
                                    "href": "/mdr/sdtmig/3-2/datasets/SE/variables/SEUPDES",
                                    "title": "Description of Unplanned Element",
                                    "type": "SDTM Dataset Variable"
                                },
                                "rootItem": {
                                    "href": "/mdr/root/sdtmig/datasets/SE/variables/SEUPDES",
                                    "title": "Version-agnostic anchor resource for SDTMIG variable SE.SEUPDES",
                                    "type": "Root Data Element"
                                },
                                "self": {
                                    "href": "/mdr/sdtmig/3-3/datasets/SE/variables/SEUPDES",
                                    "title": "Description of Unplanned Element",
                                    "type": "SDTM Dataset Variable"
                                }
                            },
                            "core": "Perm",
                            "description": "Description of what happened to the subject during an unplanned Element. Used only if ETCD has the value of \"UNPLAN\".",
                            "label": "Description of Unplanned Element",
                            "name": "SEUPDES",
                            "ordinal": "11",
                            "role": "Synonym Qualifier",
                            "simpleDatatype": "Char"
                        }
                    ],
                    "description": "A special-purpose domain that contains the actual order of elements followed by the subject, together with the start date/time and end date/time for each element. (Source: CDISC Controlled Terminology, DOMAIN, C49616, 2018-06-29)",
                    "label": "Subject Elements",
                    "name": "SE",
                    "ordinal": "3"
                },
                {
                    "_links": {
                        "modelDataset": {
                            "href": "/mdr/sdtm/1-7/datasets/SM",
                            "title": "Subject Disease Milestones",
                            "type": "SDTM Dataset"
                        },
                        "parentClass": {
                            "href": "/mdr/sdtmig/3-3/classes/SpecialPurpose",
                            "title": "Special-Purpose Datasets",
                            "type": "Class"
                        },
                        "parentProduct": {
                            "href": "/mdr/sdtmig/3-3",
                            "title": "Study Data Tabulation Model Implementation Guide: Human Clinical Trials Version 3.3 (Final)",
                            "type": "Implementation Guide"
                        },
                        "self": {
                            "href": "/mdr/sdtmig/3-3/datasets/SM",
                            "title": "Subject Disease Milestones",
                            "type": "SDTM Dataset"
                        }
                    },
                    "datasetStructure": "One record per Disease Milestone per subject",
                    "datasetVariables": [
                        {
                            "_links": {
                                "modelDatasetVariable": {
                                    "href": "/mdr/sdtm/1-7/datasets/SM/variables/STUDYID",
                                    "title": "Study Identifier",
                                    "type": "SDTM Dataset Variable"
                                },
                                "parentDataset": {
                                    "href": "/mdr/sdtmig/3-3/datasets/SM",
                                    "title": "Subject Disease Milestones",
                                    "type": "SDTM Dataset"
                                },
                                "parentProduct": {
                                    "href": "/mdr/sdtmig/3-3",
                                    "title": "Study Data Tabulation Model Implementation Guide: Human Clinical Trials Version 3.3 (Final)",
                                    "type": "Implementation Guide"
                                },
                                "rootItem": {
                                    "href": "/mdr/root/sdtmig/datasets/SM/variables/STUDYID",
                                    "title": "Version-agnostic anchor resource for SDTMIG variable SM.STUDYID",
                                    "type": "Root Data Element"
                                },
                                "self": {
                                    "href": "/mdr/sdtmig/3-3/datasets/SM/variables/STUDYID",
                                    "title": "Study Identifier",
                                    "type": "SDTM Dataset Variable"
                                }
                            },
                            "core": "Req",
                            "description": "Unique identifier for a study.",
                            "label": "Study Identifier",
                            "name": "STUDYID",
                            "ordinal": "1",
                            "role": "Identifier",
                            "simpleDatatype": "Char"
                        },
                        {
                            "_links": {
                                "modelDatasetVariable": {
                                    "href": "/mdr/sdtm/1-7/datasets/SM/variables/DOMAIN",
                                    "title": "Domain",
                                    "type": "SDTM Dataset Variable"
                                },
                                "parentDataset": {
                                    "href": "/mdr/sdtmig/3-3/datasets/SM",
                                    "title": "Subject Disease Milestones",
                                    "type": "SDTM Dataset"
                                },
                                "parentProduct": {
                                    "href": "/mdr/sdtmig/3-3",
                                    "title": "Study Data Tabulation Model Implementation Guide: Human Clinical Trials Version 3.3 (Final)",
                                    "type": "Implementation Guide"
                                },
                                "rootItem": {
                                    "href": "/mdr/root/sdtmig/datasets/SM/variables/DOMAIN",
                                    "title": "Version-agnostic anchor resource for SDTMIG variable SM.DOMAIN",
                                    "type": "Root Data Element"
                                },
                                "self": {
                                    "href": "/mdr/sdtmig/3-3/datasets/SM/variables/DOMAIN",
                                    "title": "Domain",
                                    "type": "SDTM Dataset Variable"
                                }
                            },
                            "core": "Req",
                            "description": "Two-character abbreviation for the domain.",
                            "label": "Domain",
                            "name": "DOMAIN",
                            "ordinal": "2",
                            "role": "Identifier",
                            "simpleDatatype": "Char",
                            "valueList": [
                                "SM"
                            ]
                        },
                        {
                            "_links": {
                                "modelDatasetVariable": {
                                    "href": "/mdr/sdtm/1-7/datasets/SM/variables/USUBJID",
                                    "title": "Unique Subject Identifier",
                                    "type": "SDTM Dataset Variable"
                                },
                                "parentDataset": {
                                    "href": "/mdr/sdtmig/3-3/datasets/SM",
                                    "title": "Subject Disease Milestones",
                                    "type": "SDTM Dataset"
                                },
                                "parentProduct": {
                                    "href": "/mdr/sdtmig/3-3",
                                    "title": "Study Data Tabulation Model Implementation Guide: Human Clinical Trials Version 3.3 (Final)",
                                    "type": "Implementation Guide"
                                },
                                "rootItem": {
                                    "href": "/mdr/root/sdtmig/datasets/SM/variables/USUBJID",
                                    "title": "Version-agnostic anchor resource for SDTMIG variable SM.USUBJID",
                                    "type": "Root Data Element"
                                },
                                "self": {
                                    "href": "/mdr/sdtmig/3-3/datasets/SM/variables/USUBJID",
                                    "title": "Unique Subject Identifier",
                                    "type": "SDTM Dataset Variable"
                                }
                            },
                            "core": "Req",
                            "description": "Identifier used to uniquely identify a subject across all studies.",
                            "label": "Unique Subject Identifier",
                            "name": "USUBJID",
                            "ordinal": "3",
                            "role": "Identifier",
                            "simpleDatatype": "Char"
                        },
                        {
                            "_links": {
                                "modelDatasetVariable": {
                                    "href": "/mdr/sdtm/1-7/datasets/SM/variables/SMSEQ",
                                    "title": "Sequence Number",
                                    "type": "SDTM Dataset Variable"
                                },
                                "parentDataset": {
                                    "href": "/mdr/sdtmig/3-3/datasets/SM",
                                    "title": "Subject Disease Milestones",
                                    "type": "SDTM Dataset"
                                },
                                "parentProduct": {
                                    "href": "/mdr/sdtmig/3-3",
                                    "title": "Study Data Tabulation Model Implementation Guide: Human Clinical Trials Version 3.3 (Final)",
                                    "type": "Implementation Guide"
                                },
                                "rootItem": {
                                    "href": "/mdr/root/sdtmig/datasets/SM/variables/SMSEQ",
                                    "title": "Version-agnostic anchor resource for SDTMIG variable SM.SMSEQ",
                                    "type": "Root Data Element"
                                },
                                "self": {
                                    "href": "/mdr/sdtmig/3-3/datasets/SM/variables/SMSEQ",
                                    "title": "Sequence Number",
                                    "type": "SDTM Dataset Variable"
                                }
                            },
                            "core": "Req",
                            "description": "Sequence number to ensure uniqueness of subject records. Should be assigned to be consistent chronological order.",
                            "label": "Sequence Number",
                            "name": "SMSEQ",
                            "ordinal": "4",
                            "role": "Identifier",
                            "simpleDatatype": "Num"
                        },
                        {
                            "_links": {
                                "modelDatasetVariable": {
                                    "href": "/mdr/sdtm/1-7/datasets/SM/variables/MIDS",
                                    "title": "Disease Milestone Instance Name",
                                    "type": "SDTM Dataset Variable"
                                },
                                "parentDataset": {
                                    "href": "/mdr/sdtmig/3-3/datasets/SM",
                                    "title": "Subject Disease Milestones",
                                    "type": "SDTM Dataset"
                                },
                                "parentProduct": {
                                    "href": "/mdr/sdtmig/3-3",
                                    "title": "Study Data Tabulation Model Implementation Guide: Human Clinical Trials Version 3.3 (Final)",
                                    "type": "Implementation Guide"
                                },
                                "rootItem": {
                                    "href": "/mdr/root/sdtmig/datasets/SM/variables/MIDS",
                                    "title": "Version-agnostic anchor resource for SDTMIG variable SM.MIDS",
                                    "type": "Root Data Element"
                                },
                                "self": {
                                    "href": "/mdr/sdtmig/3-3/datasets/SM/variables/MIDS",
                                    "title": "Disease Milestone Instance Name",
                                    "type": "SDTM Dataset Variable"
                                }
                            },
                            "core": "Req",
                            "description": "Name of the specific Disease Milestone. For types of Disease Milestone that can occur multiple times, the name will end with a sequence number. Example: \"HYPO1\".",
                            "label": "Disease Milestone Instance Name",
                            "name": "MIDS",
                            "ordinal": "5",
                            "role": "Topic",
                            "simpleDatatype": "Char"
                        },
                        {
                            "_links": {
                                "modelDatasetVariable": {
                                    "href": "/mdr/sdtm/1-7/datasets/SM/variables/MIDSTYPE",
                                    "title": "Disease Milestone Type",
                                    "type": "SDTM Dataset Variable"
                                },
                                "parentDataset": {
                                    "href": "/mdr/sdtmig/3-3/datasets/SM",
                                    "title": "Subject Disease Milestones",
                                    "type": "SDTM Dataset"
                                },
                                "parentProduct": {
                                    "href": "/mdr/sdtmig/3-3",
                                    "title": "Study Data Tabulation Model Implementation Guide: Human Clinical Trials Version 3.3 (Final)",
                                    "type": "Implementation Guide"
                                },
                                "rootItem": {
                                    "href": "/mdr/root/sdtmig/datasets/SM/variables/MIDSTYPE",
                                    "title": "Version-agnostic anchor resource for SDTMIG variable SM.MIDSTYPE",
                                    "type": "Root Data Element"
                                },
                                "self": {
                                    "href": "/mdr/sdtmig/3-3/datasets/SM/variables/MIDSTYPE",
                                    "title": "Disease Milestone Type",
                                    "type": "SDTM Dataset Variable"
                                }
                            },
                            "core": "Req",
                            "description": "The type of Disease Milestone. Example: \"HYPOGLYCEMIC EVENT\".",
                            "label": "Disease Milestone Type",
                            "name": "MIDSTYPE",
                            "ordinal": "6",
                            "role": "Record Qualifier",
                            "simpleDatatype": "Char"
                        },
                        {
                            "_links": {
                                "modelDatasetVariable": {
                                    "href": "/mdr/sdtm/1-7/datasets/SM/variables/SMSTDTC",
                                    "title": "Start Date/Time of Milestone",
                                    "type": "SDTM Dataset Variable"
                                },
                                "parentDataset": {
                                    "href": "/mdr/sdtmig/3-3/datasets/SM",
                                    "title": "Subject Disease Milestones",
                                    "type": "SDTM Dataset"
                                },
                                "parentProduct": {
                                    "href": "/mdr/sdtmig/3-3",
                                    "title": "Study Data Tabulation Model Implementation Guide: Human Clinical Trials Version 3.3 (Final)",
                                    "type": "Implementation Guide"
                                },
                                "rootItem": {
                                    "href": "/mdr/root/sdtmig/datasets/SM/variables/SMSTDTC",
                                    "title": "Version-agnostic anchor resource for SDTMIG variable SM.SMSTDTC",
                                    "type": "Root Data Element"
                                },
                                "self": {
                                    "href": "/mdr/sdtmig/3-3/datasets/SM/variables/SMSTDTC",
                                    "title": "Start Date/Time of Milestone",
                                    "type": "SDTM Dataset Variable"
                                }
                            },
                            "core": "Exp",
                            "describedValueDomain": "ISO 8601",
                            "description": "State date/time of Milestone Instance, if Milestone is an intervention or event, or date of Milestone if Milestone is a finding.",
                            "label": "Start Date/Time of Milestone",
                            "name": "SMSTDTC",
                            "ordinal": "7",
                            "role": "Timing",
                            "simpleDatatype": "Char"
                        },
                        {
                            "_links": {
                                "modelDatasetVariable": {
                                    "href": "/mdr/sdtm/1-7/datasets/SM/variables/SMENDTC",
                                    "title": "End Date/Time of Milestone",
                                    "type": "SDTM Dataset Variable"
                                },
                                "parentDataset": {
                                    "href": "/mdr/sdtmig/3-3/datasets/SM",
                                    "title": "Subject Disease Milestones",
                                    "type": "SDTM Dataset"
                                },
                                "parentProduct": {
                                    "href": "/mdr/sdtmig/3-3",
                                    "title": "Study Data Tabulation Model Implementation Guide: Human Clinical Trials Version 3.3 (Final)",
                                    "type": "Implementation Guide"
                                },
                                "rootItem": {
                                    "href": "/mdr/root/sdtmig/datasets/SM/variables/SMENDTC",
                                    "title": "Version-agnostic anchor resource for SDTMIG variable SM.SMENDTC",
                                    "type": "Root Data Element"
                                },
                                "self": {
                                    "href": "/mdr/sdtmig/3-3/datasets/SM/variables/SMENDTC",
                                    "title": "End Date/Time of Milestone",
                                    "type": "SDTM Dataset Variable"
                                }
                            },
                            "core": "Exp",
                            "describedValueDomain": "ISO 8601",
                            "description": "End date/time of Disease Milestone Instance.",
                            "label": "End Date/Time of Milestone",
                            "name": "SMENDTC",
                            "ordinal": "8",
                            "role": "Timing",
                            "simpleDatatype": "Char"
                        },
                        {
                            "_links": {
                                "modelDatasetVariable": {
                                    "href": "/mdr/sdtm/1-7/datasets/SM/variables/SMSTDY",
                                    "title": "Study Day of Start of Milestone",
                                    "type": "SDTM Dataset Variable"
                                },
                                "parentDataset": {
                                    "href": "/mdr/sdtmig/3-3/datasets/SM",
                                    "title": "Subject Disease Milestones",
                                    "type": "SDTM Dataset"
                                },
                                "parentProduct": {
                                    "href": "/mdr/sdtmig/3-3",
                                    "title": "Study Data Tabulation Model Implementation Guide: Human Clinical Trials Version 3.3 (Final)",
                                    "type": "Implementation Guide"
                                },
                                "rootItem": {
                                    "href": "/mdr/root/sdtmig/datasets/SM/variables/SMSTDY",
                                    "title": "Version-agnostic anchor resource for SDTMIG variable SM.SMSTDY",
                                    "type": "Root Data Element"
                                },
                                "self": {
                                    "href": "/mdr/sdtmig/3-3/datasets/SM/variables/SMSTDY",
                                    "title": "Study Day of Start of Milestone",
                                    "type": "SDTM Dataset Variable"
                                }
                            },
                            "core": "Exp",
                            "description": "Study day of start of Disease Milestone Instance, relative to the sponsor-defined RFSTDTC.",
                            "label": "Study Day of Start of Milestone",
                            "name": "SMSTDY",
                            "ordinal": "9",
                            "role": "Timing",
                            "simpleDatatype": "Num"
                        },
                        {
                            "_links": {
                                "modelDatasetVariable": {
                                    "href": "/mdr/sdtm/1-7/datasets/SM/variables/SMENDY",
                                    "title": "Study Day of End of Milestone",
                                    "type": "SDTM Dataset Variable"
                                },
                                "parentDataset": {
                                    "href": "/mdr/sdtmig/3-3/datasets/SM",
                                    "title": "Subject Disease Milestones",
                                    "type": "SDTM Dataset"
                                },
                                "parentProduct": {
                                    "href": "/mdr/sdtmig/3-3",
                                    "title": "Study Data Tabulation Model Implementation Guide: Human Clinical Trials Version 3.3 (Final)",
                                    "type": "Implementation Guide"
                                },
                                "rootItem": {
                                    "href": "/mdr/root/sdtmig/datasets/SM/variables/SMENDY",
                                    "title": "Version-agnostic anchor resource for SDTMIG variable SM.SMENDY",
                                    "type": "Root Data Element"
                                },
                                "self": {
                                    "href": "/mdr/sdtmig/3-3/datasets/SM/variables/SMENDY",
                                    "title": "Study Day of End of Milestone",
                                    "type": "SDTM Dataset Variable"
                                }
                            },
                            "core": "Exp",
                            "description": "Study day of end of Disease Milestone Instance, relative to the sponsor-defined RFSTDTC.",
                            "label": "Study Day of End of Milestone",
                            "name": "SMENDY",
                            "ordinal": "10",
                            "role": "Timing",
                            "simpleDatatype": "Num"
                        }
                    ],
                    "description": "A special-purpose domain that is designed to record the timing, for each subject, of disease milestones that have been defined in the Trial Disease Milestones (TM) domain. (Source: CDISC Controlled Terminology, DOMAIN, C147184, 2018-06-29)",
                    "label": "Subject Disease Milestones",
                    "name": "SM",
                    "ordinal": "4"
                },
                {
                    "_links": {
                        "modelDataset": {
                            "href": "/mdr/sdtm/1-7/datasets/SV",
                            "title": "Subject Visits",
                            "type": "SDTM Dataset"
                        },
                        "parentClass": {
                            "href": "/mdr/sdtmig/3-3/classes/SpecialPurpose",
                            "title": "Special-Purpose Datasets",
                            "type": "Class"
                        },
                        "parentProduct": {
                            "href": "/mdr/sdtmig/3-3",
                            "title": "Study Data Tabulation Model Implementation Guide: Human Clinical Trials Version 3.3 (Final)",
                            "type": "Implementation Guide"
                        },
                        "priorVersion": {
                            "href": "/mdr/sdtmig/3-2/datasets/SV",
                            "title": "Subject Visits",
                            "type": "SDTM Dataset"
                        },
                        "self": {
                            "href": "/mdr/sdtmig/3-3/datasets/SV",
                            "title": "Subject Visits",
                            "type": "SDTM Dataset"
                        }
                    },
                    "datasetStructure": "One record per subject per actual visit",
                    "datasetVariables": [
                        {
                            "_links": {
                                "modelDatasetVariable": {
                                    "href": "/mdr/sdtm/1-7/datasets/SV/variables/STUDYID",
                                    "title": "Study Identifier",
                                    "type": "SDTM Dataset Variable"
                                },
                                "parentDataset": {
                                    "href": "/mdr/sdtmig/3-3/datasets/SV",
                                    "title": "Subject Visits",
                                    "type": "SDTM Dataset"
                                },
                                "parentProduct": {
                                    "href": "/mdr/sdtmig/3-3",
                                    "title": "Study Data Tabulation Model Implementation Guide: Human Clinical Trials Version 3.3 (Final)",
                                    "type": "Implementation Guide"
                                },
                                "priorVersion": {
                                    "href": "/mdr/sdtmig/3-2/datasets/SV/variables/STUDYID",
                                    "title": "Study Identifier",
                                    "type": "SDTM Dataset Variable"
                                },
                                "rootItem": {
                                    "href": "/mdr/root/sdtmig/datasets/SV/variables/STUDYID",
                                    "title": "Version-agnostic anchor resource for SDTMIG variable SV.STUDYID",
                                    "type": "Root Data Element"
                                },
                                "self": {
                                    "href": "/mdr/sdtmig/3-3/datasets/SV/variables/STUDYID",
                                    "title": "Study Identifier",
                                    "type": "SDTM Dataset Variable"
                                }
                            },
                            "core": "Req",
                            "description": "Unique identifier for a study.",
                            "label": "Study Identifier",
                            "name": "STUDYID",
                            "ordinal": "1",
                            "role": "Identifier",
                            "simpleDatatype": "Char"
                        },
                        {
                            "_links": {
                                "modelDatasetVariable": {
                                    "href": "/mdr/sdtm/1-7/datasets/SV/variables/DOMAIN",
                                    "title": "Domain Abbreviation",
                                    "type": "SDTM Dataset Variable"
                                },
                                "parentDataset": {
                                    "href": "/mdr/sdtmig/3-3/datasets/SV",
                                    "title": "Subject Visits",
                                    "type": "SDTM Dataset"
                                },
                                "parentProduct": {
                                    "href": "/mdr/sdtmig/3-3",
                                    "title": "Study Data Tabulation Model Implementation Guide: Human Clinical Trials Version 3.3 (Final)",
                                    "type": "Implementation Guide"
                                },
                                "priorVersion": {
                                    "href": "/mdr/sdtmig/3-2/datasets/SV/variables/DOMAIN",
                                    "title": "Domain Abbreviation",
                                    "type": "SDTM Dataset Variable"
                                },
                                "rootItem": {
                                    "href": "/mdr/root/sdtmig/datasets/SV/variables/DOMAIN",
                                    "title": "Version-agnostic anchor resource for SDTMIG variable SV.DOMAIN",
                                    "type": "Root Data Element"
                                },
                                "self": {
                                    "href": "/mdr/sdtmig/3-3/datasets/SV/variables/DOMAIN",
                                    "title": "Domain Abbreviation",
                                    "type": "SDTM Dataset Variable"
                                }
                            },
                            "core": "Req",
                            "description": "Two-character abbreviation for the domain.",
                            "label": "Domain Abbreviation",
                            "name": "DOMAIN",
                            "ordinal": "2",
                            "role": "Identifier",
                            "simpleDatatype": "Char",
                            "valueList": [
                                "SV"
                            ]
                        },
                        {
                            "_links": {
                                "modelDatasetVariable": {
                                    "href": "/mdr/sdtm/1-7/datasets/SV/variables/USUBJID",
                                    "title": "Unique Subject Identifier",
                                    "type": "SDTM Dataset Variable"
                                },
                                "parentDataset": {
                                    "href": "/mdr/sdtmig/3-3/datasets/SV",
                                    "title": "Subject Visits",
                                    "type": "SDTM Dataset"
                                },
                                "parentProduct": {
                                    "href": "/mdr/sdtmig/3-3",
                                    "title": "Study Data Tabulation Model Implementation Guide: Human Clinical Trials Version 3.3 (Final)",
                                    "type": "Implementation Guide"
                                },
                                "priorVersion": {
                                    "href": "/mdr/sdtmig/3-2/datasets/SV/variables/USUBJID",
                                    "title": "Unique Subject Identifier",
                                    "type": "SDTM Dataset Variable"
                                },
                                "rootItem": {
                                    "href": "/mdr/root/sdtmig/datasets/SV/variables/USUBJID",
                                    "title": "Version-agnostic anchor resource for SDTMIG variable SV.USUBJID",
                                    "type": "Root Data Element"
                                },
                                "self": {
                                    "href": "/mdr/sdtmig/3-3/datasets/SV/variables/USUBJID",
                                    "title": "Unique Subject Identifier",
                                    "type": "SDTM Dataset Variable"
                                }
                            },
                            "core": "Req",
                            "description": "Identifier used to uniquely identify a subject across all studies for all applications or submissions involving the product.",
                            "label": "Unique Subject Identifier",
                            "name": "USUBJID",
                            "ordinal": "3",
                            "role": "Identifier",
                            "simpleDatatype": "Char"
                        },
                        {
                            "_links": {
                                "modelDatasetVariable": {
                                    "href": "/mdr/sdtm/1-7/datasets/SV/variables/VISITNUM",
                                    "title": "Visit Number",
                                    "type": "SDTM Dataset Variable"
                                },
                                "parentDataset": {
                                    "href": "/mdr/sdtmig/3-3/datasets/SV",
                                    "title": "Subject Visits",
                                    "type": "SDTM Dataset"
                                },
                                "parentProduct": {
                                    "href": "/mdr/sdtmig/3-3",
                                    "title": "Study Data Tabulation Model Implementation Guide: Human Clinical Trials Version 3.3 (Final)",
                                    "type": "Implementation Guide"
                                },
                                "priorVersion": {
                                    "href": "/mdr/sdtmig/3-2/datasets/SV/variables/VISITNUM",
                                    "title": "Visit Number",
                                    "type": "SDTM Dataset Variable"
                                },
                                "rootItem": {
                                    "href": "/mdr/root/sdtmig/datasets/SV/variables/VISITNUM",
                                    "title": "Version-agnostic anchor resource for SDTMIG variable SV.VISITNUM",
                                    "type": "Root Data Element"
                                },
                                "self": {
                                    "href": "/mdr/sdtmig/3-3/datasets/SV/variables/VISITNUM",
                                    "title": "Visit Number",
                                    "type": "SDTM Dataset Variable"
                                }
                            },
                            "core": "Req",
                            "description": "1. Clinical encounter number. (Decimal numbering may be useful for inserting unplanned visits.)\n2. Numeric version of VISIT, used for sorting.",
                            "label": "Visit Number",
                            "name": "VISITNUM",
                            "ordinal": "4",
                            "role": "Topic",
                            "simpleDatatype": "Num"
                        },
                        {
                            "_links": {
                                "modelDatasetVariable": {
                                    "href": "/mdr/sdtm/1-7/datasets/SV/variables/VISIT",
                                    "title": "Visit Name",
                                    "type": "SDTM Dataset Variable"
                                },
                                "parentDataset": {
                                    "href": "/mdr/sdtmig/3-3/datasets/SV",
                                    "title": "Subject Visits",
                                    "type": "SDTM Dataset"
                                },
                                "parentProduct": {
                                    "href": "/mdr/sdtmig/3-3",
                                    "title": "Study Data Tabulation Model Implementation Guide: Human Clinical Trials Version 3.3 (Final)",
                                    "type": "Implementation Guide"
                                },
                                "priorVersion": {
                                    "href": "/mdr/sdtmig/3-2/datasets/SV/variables/VISIT",
                                    "title": "Visit Name",
                                    "type": "SDTM Dataset Variable"
                                },
                                "rootItem": {
                                    "href": "/mdr/root/sdtmig/datasets/SV/variables/VISIT",
                                    "title": "Version-agnostic anchor resource for SDTMIG variable SV.VISIT",
                                    "type": "Root Data Element"
                                },
                                "self": {
                                    "href": "/mdr/sdtmig/3-3/datasets/SV/variables/VISIT",
                                    "title": "Visit Name",
                                    "type": "SDTM Dataset Variable"
                                }
                            },
                            "core": "Perm",
                            "description": "1. Protocol-defined description of clinical encounter.\n2. May be used in addition to VISITNUM and/or VISITDY as a text description of the clinical encounter.",
                            "label": "Visit Name",
                            "name": "VISIT",
                            "ordinal": "5",
                            "role": "Synonym Qualifier",
                            "simpleDatatype": "Char"
                        },
                        {
                            "_links": {
                                "modelDatasetVariable": {
                                    "href": "/mdr/sdtm/1-7/datasets/SV/variables/VISITDY",
                                    "title": "Planned Study Day of Visit",
                                    "type": "SDTM Dataset Variable"
                                },
                                "parentDataset": {
                                    "href": "/mdr/sdtmig/3-3/datasets/SV",
                                    "title": "Subject Visits",
                                    "type": "SDTM Dataset"
                                },
                                "parentProduct": {
                                    "href": "/mdr/sdtmig/3-3",
                                    "title": "Study Data Tabulation Model Implementation Guide: Human Clinical Trials Version 3.3 (Final)",
                                    "type": "Implementation Guide"
                                },
                                "priorVersion": {
                                    "href": "/mdr/sdtmig/3-2/datasets/SV/variables/VISITDY",
                                    "title": "Planned Study Day of Visit",
                                    "type": "SDTM Dataset Variable"
                                },
                                "rootItem": {
                                    "href": "/mdr/root/sdtmig/datasets/SV/variables/VISITDY",
                                    "title": "Version-agnostic anchor resource for SDTMIG variable SV.VISITDY",
                                    "type": "Root Data Element"
                                },
                                "self": {
                                    "href": "/mdr/sdtmig/3-3/datasets/SV/variables/VISITDY",
                                    "title": "Planned Study Day of Visit",
                                    "type": "SDTM Dataset Variable"
                                }
                            },
                            "core": "Perm",
                            "description": "Planned study day of the start of the visit based upon RFSTDTC in Demographics.",
                            "label": "Planned Study Day of Visit",
                            "name": "VISITDY",
                            "ordinal": "6",
                            "role": "Timing",
                            "simpleDatatype": "Num"
                        },
                        {
                            "_links": {
                                "modelDatasetVariable": {
                                    "href": "/mdr/sdtm/1-7/datasets/SV/variables/SVSTDTC",
                                    "title": "Start Date/Time of Visit",
                                    "type": "SDTM Dataset Variable"
                                },
                                "parentDataset": {
                                    "href": "/mdr/sdtmig/3-3/datasets/SV",
                                    "title": "Subject Visits",
                                    "type": "SDTM Dataset"
                                },
                                "parentProduct": {
                                    "href": "/mdr/sdtmig/3-3",
                                    "title": "Study Data Tabulation Model Implementation Guide: Human Clinical Trials Version 3.3 (Final)",
                                    "type": "Implementation Guide"
                                },
                                "priorVersion": {
                                    "href": "/mdr/sdtmig/3-2/datasets/SV/variables/SVSTDTC",
                                    "title": "Start Date/Time of Visit",
                                    "type": "SDTM Dataset Variable"
                                },
                                "rootItem": {
                                    "href": "/mdr/root/sdtmig/datasets/SV/variables/SVSTDTC",
                                    "title": "Version-agnostic anchor resource for SDTMIG variable SV.SVSTDTC",
                                    "type": "Root Data Element"
                                },
                                "self": {
                                    "href": "/mdr/sdtmig/3-3/datasets/SV/variables/SVSTDTC",
                                    "title": "Start Date/Time of Visit",
                                    "type": "SDTM Dataset Variable"
                                }
                            },
                            "core": "Exp",
                            "describedValueDomain": "ISO 8601",
                            "description": "Start date/time for a Visit.",
                            "label": "Start Date/Time of Visit",
                            "name": "SVSTDTC",
                            "ordinal": "7",
                            "role": "Timing",
                            "simpleDatatype": "Char"
                        },
                        {
                            "_links": {
                                "modelDatasetVariable": {
                                    "href": "/mdr/sdtm/1-7/datasets/SV/variables/SVENDTC",
                                    "title": "End Date/Time of Visit",
                                    "type": "SDTM Dataset Variable"
                                },
                                "parentDataset": {
                                    "href": "/mdr/sdtmig/3-3/datasets/SV",
                                    "title": "Subject Visits",
                                    "type": "SDTM Dataset"
                                },
                                "parentProduct": {
                                    "href": "/mdr/sdtmig/3-3",
                                    "title": "Study Data Tabulation Model Implementation Guide: Human Clinical Trials Version 3.3 (Final)",
                                    "type": "Implementation Guide"
                                },
                                "priorVersion": {
                                    "href": "/mdr/sdtmig/3-2/datasets/SV/variables/SVENDTC",
                                    "title": "End Date/Time of Visit",
                                    "type": "SDTM Dataset Variable"
                                },
                                "rootItem": {
                                    "href": "/mdr/root/sdtmig/datasets/SV/variables/SVENDTC",
                                    "title": "Version-agnostic anchor resource for SDTMIG variable SV.SVENDTC",
                                    "type": "Root Data Element"
                                },
                                "self": {
                                    "href": "/mdr/sdtmig/3-3/datasets/SV/variables/SVENDTC",
                                    "title": "End Date/Time of Visit",
                                    "type": "SDTM Dataset Variable"
                                }
                            },
                            "core": "Exp",
                            "describedValueDomain": "ISO 8601",
                            "description": "End date/time of a Visit.",
                            "label": "End Date/Time of Visit",
                            "name": "SVENDTC",
                            "ordinal": "8",
                            "role": "Timing",
                            "simpleDatatype": "Char"
                        },
                        {
                            "_links": {
                                "modelDatasetVariable": {
                                    "href": "/mdr/sdtm/1-7/datasets/SV/variables/SVSTDY",
                                    "title": "Study Day of Start of Visit",
                                    "type": "SDTM Dataset Variable"
                                },
                                "parentDataset": {
                                    "href": "/mdr/sdtmig/3-3/datasets/SV",
                                    "title": "Subject Visits",
                                    "type": "SDTM Dataset"
                                },
                                "parentProduct": {
                                    "href": "/mdr/sdtmig/3-3",
                                    "title": "Study Data Tabulation Model Implementation Guide: Human Clinical Trials Version 3.3 (Final)",
                                    "type": "Implementation Guide"
                                },
                                "priorVersion": {
                                    "href": "/mdr/sdtmig/3-2/datasets/SV/variables/SVSTDY",
                                    "title": "Study Day of Start of Visit",
                                    "type": "SDTM Dataset Variable"
                                },
                                "rootItem": {
                                    "href": "/mdr/root/sdtmig/datasets/SV/variables/SVSTDY",
                                    "title": "Version-agnostic anchor resource for SDTMIG variable SV.SVSTDY",
                                    "type": "Root Data Element"
                                },
                                "self": {
                                    "href": "/mdr/sdtmig/3-3/datasets/SV/variables/SVSTDY",
                                    "title": "Study Day of Start of Visit",
                                    "type": "SDTM Dataset Variable"
                                }
                            },
                            "core": "Perm",
                            "description": "Study day of start of visit relative to the sponsor-defined RFSTDTC.",
                            "label": "Study Day of Start of Visit",
                            "name": "SVSTDY",
                            "ordinal": "9",
                            "role": "Timing",
                            "simpleDatatype": "Num"
                        },
                        {
                            "_links": {
                                "modelDatasetVariable": {
                                    "href": "/mdr/sdtm/1-7/datasets/SV/variables/SVENDY",
                                    "title": "Study Day of End of Visit",
                                    "type": "SDTM Dataset Variable"
                                },
                                "parentDataset": {
                                    "href": "/mdr/sdtmig/3-3/datasets/SV",
                                    "title": "Subject Visits",
                                    "type": "SDTM Dataset"
                                },
                                "parentProduct": {
                                    "href": "/mdr/sdtmig/3-3",
                                    "title": "Study Data Tabulation Model Implementation Guide: Human Clinical Trials Version 3.3 (Final)",
                                    "type": "Implementation Guide"
                                },
                                "priorVersion": {
                                    "href": "/mdr/sdtmig/3-2/datasets/SV/variables/SVENDY",
                                    "title": "Study Day of End of Visit",
                                    "type": "SDTM Dataset Variable"
                                },
                                "rootItem": {
                                    "href": "/mdr/root/sdtmig/datasets/SV/variables/SVENDY",
                                    "title": "Version-agnostic anchor resource for SDTMIG variable SV.SVENDY",
                                    "type": "Root Data Element"
                                },
                                "self": {
                                    "href": "/mdr/sdtmig/3-3/datasets/SV/variables/SVENDY",
