{"_links": {"model": {"href": "/mdr/sdtm/1-7", "title": "Study Data Tabulation Model Version 1.7", "type": "Foundational Model"}, "priorVersion": {"href": "/mdr/sdtmig/md-1-0", "title": "SDTM Implementation Guide for Medical Devices SDTMIG-MD 1.0 (Provisional)", "type": "Implementation Guide"}, "self": {"href": "/mdr/sdtmig/md-1-1", "title": "Study Data Tabulation Model Implementation Guide for Medical Devices (SDTMIG-MD) Version 1.1", "type": "Implementation Guide"}}, "classes": [{"_links": {"modelClass": {"href": "/mdr/sdtm/1-7/classes/GeneralObservations", "title": "General Observation Class", "type": "Class"}, "parentProduct": {"href": "/mdr/sdtmig/md-1-1", "title": "Study Data Tabulation Model Implementation Guide for Medical Devices (SDTMIG-MD) Version 1.1", "type": "Implementation Guide"}, "priorVersion": {"href": "/mdr/sdtmig/md-1-0/classes/GeneralObservations", "title": "General Observation Class", "type": "Class"}, "self": {"href": "/mdr/sdtmig/md-1-1/classes/GeneralObservations", "title": "General Observation Class", "type": "Class"}, "subclasses": [{"href": "/mdr/sdtmig/md-1-1/classes/Interventions", "title": "Interventions Observation Class", "type": "Class"}, {"href": "/mdr/sdtmig/md-1-1/classes/Events", "title": "Events Observation Class", "type": "Class"}, {"href": "/mdr/sdtmig/md-1-1/classes/Findings", "title": "Findings Observation Class", "type": "Class"}]}, "description": "The majority of observations collected during a study can be divided among three general classes: Interventions, Events, or Findings.  Datasets based on any of the general observation classes share a set of common Identifier and Timing variables. As a general rule, any valid Identifier or Timing variable is permissible for use in any submission dataset based on a general observation class. (Source: SDTM v1.7, Section 2.2)", "label": "General Observation Class", "name": "General Observations", "ordinal": "1"}, {"_links": {"modelClass": {"href": "/mdr/sdtm/1-7/classes/Interventions", "title": "Interventions Observation Class", "type": "Class"}, "parentClass": {"href": "/mdr/sdtmig/md-1-1/classes/GeneralObservations", "title": "General Observation Class", "type": "Class"}, "parentProduct": {"href": "/mdr/sdtmig/md-1-1", "title": "Study Data Tabulation Model Implementation Guide for Medical Devices (SDTMIG-MD) Version 1.1", "type": "Implementation Guide"}, "priorVersion": {"href": "/mdr/sdtmig/md-1-0/classes/Interventions", "title": "Interventions Observation Class", "type": "Class"}, "self": {"href": "/mdr/sdtmig/md-1-1/classes/Interventions", "title": "Interventions Observation Class", "type": "Class"}}, "datasets": [{"_links": {"parentClass": {"href": "/mdr/sdtmig/md-1-1/classes/Interventions", "title": "Interventions Observation Class", "type": "Class"}, "parentProduct": {"href": "/mdr/sdtmig/md-1-1", "title": "Study Data Tabulation Model Implementation Guide for Medical Devices (SDTMIG-MD) Version 1.1", "type": "Implementation Guide"}, "priorVersion": {"href": "/mdr/sdtmig/md-1-0/datasets/DX", "title": "Device Exposure", "type": "SDTM Dataset"}, "self": {"href": "/mdr/sdtmig/md-1-1/datasets/DX", "title": "Device Exposure", "type": "SDTM Dataset"}}, "datasetStructure": "One record per recorded intervention occurrence or constant treatment interval per subject", "datasetVariables": [{"_links": {"modelClassVariable": {"href": "/mdr/sdtm/1-7/classes/GeneralObservations/variables/STUDYID", "title": "Study Identifier", "type": "Class Variable"}, "parentDataset": {"href": "/mdr/sdtmig/md-1-1/datasets/DX", "title": "Device Exposure", "type": "SDTM Dataset"}, "parentProduct": {"href": "/mdr/sdtmig/md-1-1", "title": "Study Data Tabulation Model Implementation Guide for Medical Devices (SDTMIG-MD) Version 1.1", "type": "Implementation Guide"}, "priorVersion": {"href": "/mdr/sdtmig/md-1-0/datasets/DX/variables/STUDYID", "title": "Study Identifier", "type": "SDTM Dataset Variable"}, "rootItem": {"href": "/mdr/root/sdtmig/datasets/DX/variables/STUDYID", "title": "Version-agnostic anchor resource for SDTMIG variable DX.STUDYID", "type": "Root Data Element"}, "self": {"href": "/mdr/sdtmig/md-1-1/datasets/DX/variables/STUDYID", "title": "Study Identifier", "type": "SDTM Dataset Variable"}}, "core": "Req", "description": "Unique identifier for a study.", "label": "Study Identifier", "name": "STUDYID", "ordinal": "1", "role": "Identifier", "simpleDatatype": "Char"}, {"_links": {"modelClassVariable": {"href": "/mdr/sdtm/1-7/classes/GeneralObservations/variables/DOMAIN", "title": "Domain Abbreviation", "type": "Class Variable"}, "parentDataset": {"href": "/mdr/sdtmig/md-1-1/datasets/DX", "title": "Device Exposure", "type": "SDTM Dataset"}, "parentProduct": {"href": "/mdr/sdtmig/md-1-1", "title": "Study Data Tabulation Model Implementation Guide for Medical Devices (SDTMIG-MD) Version 1.1", "type": "Implementation Guide"}, "priorVersion": {"href": "/mdr/sdtmig/md-1-0/datasets/DX/variables/DOMAIN", "title": "Domain Abbreviation", "type": "SDTM Dataset Variable"}, "rootItem": {"href": "/mdr/root/sdtmig/datasets/DX/variables/DOMAIN", "title": "Version-agnostic anchor resource for SDTMIG variable DX.DOMAIN", "type": "Root Data Element"}, "self": {"href": "/mdr/sdtmig/md-1-1/datasets/DX/variables/DOMAIN", "title": "Domain Abbreviation", "type": "SDTM Dataset Variable"}}, "core": "Req", "description": "Two-character abbreviation for the domain.", "label": "Domain Abbreviation", "name": "DOMAIN", "ordinal": "2", "role": "Identifier", "simpleDatatype": "Char", "valueList": ["DX"]}, {"_links": {"modelClassVariable": {"href": "/mdr/sdtm/1-7/classes/GeneralObservations/variables/USUBJID", "title": "Unique Subject Identifier", "type": "Class Variable"}, "parentDataset": {"href": "/mdr/sdtmig/md-1-1/datasets/DX", "title": "Device Exposure", "type": "SDTM Dataset"}, "parentProduct": {"href": "/mdr/sdtmig/md-1-1", "title": "Study Data Tabulation Model Implementation Guide for Medical Devices (SDTMIG-MD) Version 1.1", "type": "Implementation Guide"}, "priorVersion": {"href": "/mdr/sdtmig/md-1-0/datasets/DX/variables/USUBJID", "title": "Unique Subject Identifier", "type": "SDTM Dataset Variable"}, "rootItem": {"href": "/mdr/root/sdtmig/datasets/DX/variables/USUBJID", "title": "Version-agnostic anchor resource for SDTMIG variable DX.USUBJID", "type": "Root Data Element"}, "self": {"href": "/mdr/sdtmig/md-1-1/datasets/DX/variables/USUBJID", "title": "Unique Subject Identifier", "type": "SDTM Dataset Variable"}}, "core": "Req", "description": "Identifier used to uniquely identify a subject across all studies for all applications or submissions involving the product.", "label": "Unique Subject Identifier", "name": "USUBJID", "ordinal": "3", "role": "Identifier", "simpleDatatype": "Char"}, {"_links": {"modelClassVariable": {"href": "/mdr/sdtm/1-7/classes/GeneralObservations/variables/SPDEVID", "title": "Sponsor Device Identifier", "type": "Class Variable"}, "parentDataset": {"href": "/mdr/sdtmig/md-1-1/datasets/DX", "title": "Device Exposure", "type": "SDTM Dataset"}, "parentProduct": {"href": "/mdr/sdtmig/md-1-1", "title": "Study Data Tabulation Model Implementation Guide for Medical Devices (SDTMIG-MD) Version 1.1", "type": "Implementation Guide"}, "priorVersion": {"href": "/mdr/sdtmig/md-1-0/datasets/DX/variables/SPDEVID", "title": "Sponsor Device Identifier", "type": "SDTM Dataset Variable"}, "rootItem": {"href": "/mdr/root/sdtmig/datasets/DX/variables/SPDEVID", "title": "Version-agnostic anchor resource for SDTMIG variable DX.SPDEVID", "type": "Root Data Element"}, "self": {"href": "/mdr/sdtmig/md-1-1/datasets/DX/variables/SPDEVID", "title": "Sponsor Device Identifier", "type": "SDTM Dataset Variable"}}, "core": "Req", "description": "Sponsor-defined identifier for the device. It must be unique for each tracked unit of the device under study, and can be at whatever level of granularity the device should be identified (e.g., model or serial number, or combination of identifiers).", "label": "Sponsor Device Identifier", "name": "SPDEVID", "ordinal": "4", "role": "Identifier", "simpleDatatype": "Char"}, {"_links": {"modelClassVariable": {"href": "/mdr/sdtm/1-7/classes/GeneralObservations/variables/--SEQ", "title": "Sequence Number", "type": "Class Variable"}, "parentDataset": {"href": "/mdr/sdtmig/md-1-1/datasets/DX", "title": "Device Exposure", "type": "SDTM Dataset"}, "parentProduct": {"href": "/mdr/sdtmig/md-1-1", "title": "Study Data Tabulation Model Implementation Guide for Medical Devices (SDTMIG-MD) Version 1.1", "type": "Implementation Guide"}, "priorVersion": {"href": "/mdr/sdtmig/md-1-0/datasets/DX/variables/DXSEQ", "title": "Sequence Number", "type": "SDTM Dataset Variable"}, "rootItem": {"href": "/mdr/root/sdtmig/datasets/DX/variables/DXSEQ", "title": "Version-agnostic anchor resource for SDTMIG variable DX.DXSEQ", "type": "Root Data Element"}, "self": {"href": "/mdr/sdtmig/md-1-1/datasets/DX/variables/DXSEQ", "title": "Sequence Number", "type": "SDTM Dataset Variable"}}, "core": "Req", "description": "Sequence Number given to ensure uniqueness of device records within subject records within a domain. May be any valid number. It should be unique within every subject/device combination.", "label": "Sequence Number", "name": "DXSEQ", "ordinal": "5", "role": "Identifier", "simpleDatatype": "Num"}, {"_links": {"modelClassVariable": {"href": "/mdr/sdtm/1-7/classes/GeneralObservations/variables/--GRPID", "title": "Group ID", "type": "Class Variable"}, "parentDataset": {"href": "/mdr/sdtmig/md-1-1/datasets/DX", "title": "Device Exposure", "type": "SDTM Dataset"}, "parentProduct": {"href": "/mdr/sdtmig/md-1-1", "title": "Study Data Tabulation Model Implementation Guide for Medical Devices (SDTMIG-MD) Version 1.1", "type": "Implementation Guide"}, "priorVersion": {"href": "/mdr/sdtmig/md-1-0/datasets/DX/variables/DXGRPID", "title": "Group ID", "type": "SDTM Dataset Variable"}, "rootItem": {"href": "/mdr/root/sdtmig/datasets/DX/variables/DXGRPID", "title": "Version-agnostic anchor resource for SDTMIG variable DX.DXGRPID", "type": "Root Data Element"}, "self": {"href": "/mdr/sdtmig/md-1-1/datasets/DX/variables/DXGRPID", "title": "Group ID", "type": "SDTM Dataset Variable"}}, "core": "Perm", "description": "Identifier that ties together a block of related records in a single domain for a subject. For example, if a device is inserted that delivers radiation, DXGRPID could be used to tie the records for the device and the radiation together for each course of therapy.", "label": "Group ID", "name": "DXGRPID", "ordinal": "6", "role": "Identifier", "simpleDatatype": "Char"}, {"_links": {"modelClassVariable": {"href": "/mdr/sdtm/1-7/classes/GeneralObservations/variables/--SPID", "title": "Sponsor-Defined Identifier", "type": "Class Variable"}, "parentDataset": {"href": "/mdr/sdtmig/md-1-1/datasets/DX", "title": "Device Exposure", "type": "SDTM Dataset"}, "parentProduct": {"href": "/mdr/sdtmig/md-1-1", "title": "Study Data Tabulation Model Implementation Guide for Medical Devices (SDTMIG-MD) Version 1.1", "type": "Implementation Guide"}, "priorVersion": {"href": "/mdr/sdtmig/md-1-0/datasets/DX/variables/DXSPID", "title": "Sponsor-Defined Identifier", "type": "SDTM Dataset Variable"}, "rootItem": {"href": "/mdr/root/sdtmig/datasets/DX/variables/DXSPID", "title": "Version-agnostic anchor resource for SDTMIG variable DX.DXSPID", "type": "Root Data Element"}, "self": {"href": "/mdr/sdtmig/md-1-1/datasets/DX/variables/DXSPID", "title": "Sponsor-Defined Identifier", "type": "SDTM Dataset Variable"}}, "core": "Perm", "description": "Sponsor-defined reference number. Examples: a number pre-printed on the CRF as an explicit line identifier or record identifier defined in the sponsor's operational database.", "label": "Sponsor-Defined Identifier", "name": "DXSPID", "ordinal": "7", "role": "Identifier", "simpleDatatype": "Char"}, {"_links": {"modelClassVariable": {"href": "/mdr/sdtm/1-7/classes/Interventions/variables/--TRT", "title": "Name of Treatment", "type": "Class Variable"}, "parentDataset": {"href": "/mdr/sdtmig/md-1-1/datasets/DX", "title": "Device Exposure", "type": "SDTM Dataset"}, "parentProduct": {"href": "/mdr/sdtmig/md-1-1", "title": "Study Data Tabulation Model Implementation Guide for Medical Devices (SDTMIG-MD) Version 1.1", "type": "Implementation Guide"}, "priorVersion": {"href": "/mdr/sdtmig/md-1-0/datasets/DX/variables/DXTRT", "title": "Name of Device Exposure or Output", "type": "SDTM Dataset Variable"}, "rootItem": {"href": "/mdr/root/sdtmig/datasets/DX/variables/DXTRT", "title": "Version-agnostic anchor resource for SDTMIG variable DX.DXTRT", "type": "Root Data Element"}, "self": {"href": "/mdr/sdtmig/md-1-1/datasets/DX/variables/DXTRT", "title": "Name of Device Exposure or Output", "type": "SDTM Dataset Variable"}}, "core": "Req", "description": "Name of the device or the exposure outputs that are delivered or administered via the device. This should match the definitions as described in the trial summary domain and/or the protocol. Example: \"coronary stent\", \"extracorporeal shock wave treatment\", \"hyaluronic acid\".", "label": "Name of Device Exposure or Output", "name": "DXTRT", "ordinal": "8", "role": "Topic", "simpleDatatype": "Char"}, {"_links": {"modelClassVariable": {"href": "/mdr/sdtm/1-7/classes/Interventions/variables/--CAT", "title": "Category", "type": "Class Variable"}, "parentDataset": {"href": "/mdr/sdtmig/md-1-1/datasets/DX", "title": "Device Exposure", "type": "SDTM Dataset"}, "parentProduct": {"href": "/mdr/sdtmig/md-1-1", "title": "Study Data Tabulation Model Implementation Guide for Medical Devices (SDTMIG-MD) Version 1.1", "type": "Implementation Guide"}, "priorVersion": {"href": "/mdr/sdtmig/md-1-0/datasets/DX/variables/DXCAT", "title": "Category for Device Exposure", "type": "SDTM Dataset Variable"}, "rootItem": {"href": "/mdr/root/sdtmig/datasets/DX/variables/DXCAT", "title": "Version-agnostic anchor resource for SDTMIG variable DX.DXCAT", "type": "Root Data Element"}, "self": {"href": "/mdr/sdtmig/md-1-1/datasets/DX/variables/DXCAT", "title": "Category for Device Exposure", "type": "SDTM Dataset Variable"}}, "core": "Perm", "description": "Used to define a category of device exposures. For example, for a subject who had radiation delivered through an implanted catheter, DXCAT could be used to group the radiation records versus the catheter records.", "label": "Category for Device Exposure", "name": "DXCAT", "ordinal": "9", "role": "Grouping Qualifier", "simpleDatatype": "Char"}, {"_links": {"modelClassVariable": {"href": "/mdr/sdtm/1-7/classes/Interventions/variables/--SCAT", "title": "Subcategory", "type": "Class Variable"}, "parentDataset": {"href": "/mdr/sdtmig/md-1-1/datasets/DX", "title": "Device Exposure", "type": "SDTM Dataset"}, "parentProduct": {"href": "/mdr/sdtmig/md-1-1", "title": "Study Data Tabulation Model Implementation Guide for Medical Devices (SDTMIG-MD) Version 1.1", "type": "Implementation Guide"}, "priorVersion": {"href": "/mdr/sdtmig/md-1-0/datasets/DX/variables/DXSCAT", "title": "Subcategory for Device Exposure", "type": "SDTM Dataset Variable"}, "rootItem": {"href": "/mdr/root/sdtmig/datasets/DX/variables/DXSCAT", "title": "Version-agnostic anchor resource for SDTMIG variable DX.DXSCAT", "type": "Root Data Element"}, "self": {"href": "/mdr/sdtmig/md-1-1/datasets/DX/variables/DXSCAT", "title": "Subcategory for Device Exposure", "type": "SDTM Dataset Variable"}}, "core": "Perm", "description": "A further categorization of device exposures. If DXCAT captures the radiation versus catheter records (see DXCAT), then DXSCAT might capture the type of catheter if more than one was used.", "label": "Subcategory for Device Exposure", "name": "DXSCAT", "ordinal": "10", "role": "Grouping Qualifier", "simpleDatatype": "Char"}, {"_links": {"modelClassVariable": {"href": "/mdr/sdtm/1-7/classes/Interventions/variables/--DOSE", "title": "Dose", "type": "Class Variable"}, "parentDataset": {"href": "/mdr/sdtmig/md-1-1/datasets/DX", "title": "Device Exposure", "type": "SDTM Dataset"}, "parentProduct": {"href": "/mdr/sdtmig/md-1-1", "title": "Study Data Tabulation Model Implementation Guide for Medical Devices (SDTMIG-MD) Version 1.1", "type": "Implementation Guide"}, "priorVersion": {"href": "/mdr/sdtmig/md-1-0/datasets/DX/variables/DXDOSE", "title": "Exposure per Administration", "type": "SDTM Dataset Variable"}, "rootItem": {"href": "/mdr/root/sdtmig/datasets/DX/variables/DXDOSE", "title": "Version-agnostic anchor resource for SDTMIG variable DX.DXDOSE", "type": "Root Data Element"}, "self": {"href": "/mdr/sdtmig/md-1-1/datasets/DX/variables/DXDOSE", "title": "Exposure per Administration", "type": "SDTM Dataset Variable"}}, "core": "Perm", "description": "Amount of DXTRT administered/delivered per administration. Dose if captured as a numeric value. Dose should only appear once in DXDOSE, DXDOSTXT, or DXDOSTOT.", "label": "Exposure per Administration", "name": "DXDOSE", "ordinal": "11", "role": "Record Qualifier", "simpleDatatype": "Num"}, {"_links": {"modelClassVariable": {"href": "/mdr/sdtm/1-7/classes/Interventions/variables/--DOSTXT", "title": "Dose Description", "type": "Class Variable"}, "parentDataset": {"href": "/mdr/sdtmig/md-1-1/datasets/DX", "title": "Device Exposure", "type": "SDTM Dataset"}, "parentProduct": {"href": "/mdr/sdtmig/md-1-1", "title": "Study Data Tabulation Model Implementation Guide for Medical Devices (SDTMIG-MD) Version 1.1", "type": "Implementation Guide"}, "priorVersion": {"href": "/mdr/sdtmig/md-1-0/datasets/DX/variables/DXDOSTXT", "title": "Device Exposure Description", "type": "SDTM Dataset Variable"}, "rootItem": {"href": "/mdr/root/sdtmig/datasets/DX/variables/DXDOSTXT", "title": "Version-agnostic anchor resource for SDTMIG variable DX.DXDOSTXT", "type": "Root Data Element"}, "self": {"href": "/mdr/sdtmig/md-1-1/datasets/DX/variables/DXDOSTXT", "title": "Device Exposure Description", "type": "SDTM Dataset Variable"}}, "core": "Perm", "description": "Exposure amount or a range of exposure information collected in text form. Units may be stored in DXDOSU. Example: 200-400, 15-20. Dose should only appear once in DXDOSE, DXDOSTXT, or DXDOSTOT.", "label": "Device Exposure Description", "name": "DXDOSTXT", "ordinal": "12", "role": "Record Qualifier", "simpleDatatype": "Char"}, {"_links": {"codelist": [{"href": "/mdr/root/ct/sdtmct/codelists/C71620", "title": "Version-agnostic anchor resource for codelist C71620", "type": "Root Value Domain"}], "modelClassVariable": {"href": "/mdr/sdtm/1-7/classes/Interventions/variables/--DOSU", "title": "Dose Units", "type": "Class Variable"}, "parentDataset": {"href": "/mdr/sdtmig/md-1-1/datasets/DX", "title": "Device Exposure", "type": "SDTM Dataset"}, "parentProduct": {"href": "/mdr/sdtmig/md-1-1", "title": "Study Data Tabulation Model Implementation Guide for Medical Devices (SDTMIG-MD) Version 1.1", "type": "Implementation Guide"}, "priorVersion": {"href": "/mdr/sdtmig/md-1-0/datasets/DX/variables/DXDOSU", "title": "Device Exposure Units", "type": "SDTM Dataset Variable"}, "rootItem": {"href": "/mdr/root/sdtmig/datasets/DX/variables/DXDOSU", "title": "Version-agnostic anchor resource for SDTMIG variable DX.DXDOSU", "type": "Root Data Element"}, "self": {"href": "/mdr/sdtmig/md-1-1/datasets/DX/variables/DXDOSU", "title": "Device Exposure Units", "type": "SDTM Dataset Variable"}}, "core": "Perm", "description": "Units for DXDOSE, DXDOSTXT, and DXDOSTOT. Examples: \"pulses\", \"ml\".", "label": "Device Exposure Units", "name": "DXDOSU", "ordinal": "13", "role": "Variable Qualifier", "simpleDatatype": "Char"}, {"_links": {"codelist": [{"href": "/mdr/root/ct/sdtmct/codelists/C71113", "title": "Version-agnostic anchor resource for codelist C71113", "type": "Root Value Domain"}], "modelClassVariable": {"href": "/mdr/sdtm/1-7/classes/Interventions/variables/--DOSFRQ", "title": "Dosing Frequency per Interval", "type": "Class Variable"}, "parentDataset": {"href": "/mdr/sdtmig/md-1-1/datasets/DX", "title": "Device Exposure", "type": "SDTM Dataset"}, "parentProduct": {"href": "/mdr/sdtmig/md-1-1", "title": "Study Data Tabulation Model Implementation Guide for Medical Devices (SDTMIG-MD) Version 1.1", "type": "Implementation Guide"}, "priorVersion": {"href": "/mdr/sdtmig/md-1-0/datasets/DX/variables/DXDOSFRQ", "title": "Device Exposure Frequency per Interval", "type": "SDTM Dataset Variable"}, "rootItem": {"href": "/mdr/root/sdtmig/datasets/DX/variables/DXDOSFRQ", "title": "Version-agnostic anchor resource for SDTMIG variable DX.DXDOSFRQ", "type": "Root Data Element"}, "self": {"href": "/mdr/sdtmig/md-1-1/datasets/DX/variables/DXDOSFRQ", "title": "Device Exposure Frequency per Interval", "type": "SDTM Dataset Variable"}}, "core": "Perm", "description": "Exposure frequency per interval. Usually expressed as the number of repeated administrations of DXDOSE within a specific time period. Examples: \"CONTINUOUS\", \"PRN\", \"Q2M\" (every 2 months).", "label": "Device Exposure Frequency per Interval", "name": "DXDOSFRQ", "ordinal": "14", "role": "Variable Qualifier", "simpleDatatype": "Char"}, {"_links": {"modelClassVariable": {"href": "/mdr/sdtm/1-7/classes/Interventions/variables/--DOSTOT", "title": "Total Daily Dose", "type": "Class Variable"}, "parentDataset": {"href": "/mdr/sdtmig/md-1-1/datasets/DX", "title": "Device Exposure", "type": "SDTM Dataset"}, "parentProduct": {"href": "/mdr/sdtmig/md-1-1", "title": "Study Data Tabulation Model Implementation Guide for Medical Devices (SDTMIG-MD) Version 1.1", "type": "Implementation Guide"}, "priorVersion": {"href": "/mdr/sdtmig/md-1-0/datasets/DX/variables/DXDOSTOT", "title": "Total Daily Device Exposure", "type": "SDTM Dataset Variable"}, "rootItem": {"href": "/mdr/root/sdtmig/datasets/DX/variables/DXDOSTOT", "title": "Version-agnostic anchor resource for SDTMIG variable DX.DXDOSTOT", "type": "Root Data Element"}, "self": {"href": "/mdr/sdtmig/md-1-1/datasets/DX/variables/DXDOSTOT", "title": "Total Daily Device Exposure", "type": "SDTM Dataset Variable"}}, "core": "Perm", "description": "Total daily exposure of DXTRT using the units in DXDOSU. Total exposure over a period other than day could be recorded in a separate Supplemental Qualifier variable.", "label": "Total Daily Device Exposure", "name": "DXDOSTOT", "ordinal": "15", "role": "Record Qualifier", "simpleDatatype": "Num"}, {"_links": {"modelClassVariable": {"href": "/mdr/sdtm/1-7/classes/Interventions/variables/--DOSRGM", "title": "Intended Dose Regimen", "type": "Class Variable"}, "parentDataset": {"href": "/mdr/sdtmig/md-1-1/datasets/DX", "title": "Device Exposure", "type": "SDTM Dataset"}, "parentProduct": {"href": "/mdr/sdtmig/md-1-1", "title": "Study Data Tabulation Model Implementation Guide for Medical Devices (SDTMIG-MD) Version 1.1", "type": "Implementation Guide"}, "priorVersion": {"href": "/mdr/sdtmig/md-1-0/datasets/DX/variables/DXDOSRGM", "title": "Intended Device Exposure Regimen", "type": "SDTM Dataset Variable"}, "rootItem": {"href": "/mdr/root/sdtmig/datasets/DX/variables/DXDOSRGM", "title": "Version-agnostic anchor resource for SDTMIG variable DX.DXDOSRGM", "type": "Root Data Element"}, "self": {"href": "/mdr/sdtmig/md-1-1/datasets/DX/variables/DXDOSRGM", "title": "Intended Device Exposure Regimen", "type": "SDTM Dataset Variable"}}, "core": "Perm", "description": "Text description of the (intended) schedule or regimen for the Intervention. Examples: \"TWO WEEKS ON, TWO WEEKS OFF\".", "label": "Intended Device Exposure Regimen", "name": "DXDOSRGM", "ordinal": "16", "role": "Variable Qualifier", "simpleDatatype": "Char"}, {"_links": {"codelist": [{"href": "/mdr/root/ct/sdtmct/codelists/C66729", "title": "Version-agnostic anchor resource for codelist C66729", "type": "Root Value Domain"}], "modelClassVariable": {"href": "/mdr/sdtm/1-7/classes/Interventions/variables/--ROUTE", "title": "Route of Administration", "type": "Class Variable"}, "parentDataset": {"href": "/mdr/sdtmig/md-1-1/datasets/DX", "title": "Device Exposure", "type": "SDTM Dataset"}, "parentProduct": {"href": "/mdr/sdtmig/md-1-1", "title": "Study Data Tabulation Model Implementation Guide for Medical Devices (SDTMIG-MD) Version 1.1", "type": "Implementation Guide"}, "priorVersion": {"href": "/mdr/sdtmig/md-1-0/datasets/DX/variables/DXROUTE", "title": "Route of Administration", "type": "SDTM Dataset Variable"}, "rootItem": {"href": "/mdr/root/sdtmig/datasets/DX/variables/DXROUTE", "title": "Version-agnostic anchor resource for SDTMIG variable DX.DXROUTE", "type": "Root Data Element"}, "self": {"href": "/mdr/sdtmig/md-1-1/datasets/DX/variables/DXROUTE", "title": "Route of Administration", "type": "SDTM Dataset Variable"}}, "core": "Perm", "description": "Route of administration for DXTRT. Examples: \"EXTRACORPOREAL\", \"INTRA-ARTICULAR, HEMODIALYSIS\".", "label": "Route of Administration", "name": "DXROUTE", "ordinal": "17", "role": "Variable Qualifier", "simpleDatatype": "Char"}, {"_links": {"modelClassVariable": {"href": "/mdr/sdtm/1-7/classes/Interventions/variables/--LOC", "title": "Location of Dose Administration", "type": "Class Variable"}, "parentDataset": {"href": "/mdr/sdtmig/md-1-1/datasets/DX", "title": "Device Exposure", "type": "SDTM Dataset"}, "parentProduct": {"href": "/mdr/sdtmig/md-1-1", "title": "Study Data Tabulation Model Implementation Guide for Medical Devices (SDTMIG-MD) Version 1.1", "type": "Implementation Guide"}, "priorVersion": {"href": "/mdr/sdtmig/md-1-0/datasets/DX/variables/DXLOC", "title": "Location of Device Exposure", "type": "SDTM Dataset Variable"}, "rootItem": {"href": "/mdr/root/sdtmig/datasets/DX/variables/DXLOC", "title": "Version-agnostic anchor resource for SDTMIG variable DX.DXLOC", "type": "Root Data Element"}, "self": {"href": "/mdr/sdtmig/md-1-1/datasets/DX/variables/DXLOC", "title": "Location of Device Exposure", "type": "SDTM Dataset Variable"}}, "core": "Perm", "description": "Anatomic location of exposure. Examples: \"Knee\", \"Eye\".", "label": "Location of Device Exposure", "name": "DXLOC", "ordinal": "18", "role": "Record Qualifier", "simpleDatatype": "Char"}, {"_links": {"modelClassVariable": {"href": "/mdr/sdtm/1-7/classes/Interventions/variables/--LAT", "title": "Laterality", "type": "Class Variable"}, "parentDataset": {"href": "/mdr/sdtmig/md-1-1/datasets/DX", "title": "Device Exposure", "type": "SDTM Dataset"}, "parentProduct": {"href": "/mdr/sdtmig/md-1-1", "title": "Study Data Tabulation Model Implementation Guide for Medical Devices (SDTMIG-MD) Version 1.1", "type": "Implementation Guide"}, "priorVersion": {"href": "/mdr/sdtmig/md-1-0/datasets/DX/variables/DXLAT", "title": "Laterality of Device Exposure", "type": "SDTM Dataset Variable"}, "rootItem": {"href": "/mdr/root/sdtmig/datasets/DX/variables/DXLAT", "title": "Version-agnostic anchor resource for SDTMIG variable DX.DXLAT", "type": "Root Data Element"}, "self": {"href": "/mdr/sdtmig/md-1-1/datasets/DX/variables/DXLAT", "title": "Laterality of Device Exposure", "type": "SDTM Dataset Variable"}}, "core": "Perm", "description": "Qualifier for anatomical location further detailing laterality. Examples: \"RIGHT\", \"LEFT\", \"BILATERAL\".", "label": "Laterality of Device Exposure", "name": "DXLAT", "ordinal": "19", "role": "Variable Qualifier", "simpleDatatype": "Char"}, {"_links": {"modelClassVariable": {"href": "/mdr/sdtm/1-7/classes/Interventions/variables/--ADJ", "title": "Reason for Dose Adjustment", "type": "Class Variable"}, "parentDataset": {"href": "/mdr/sdtmig/md-1-1/datasets/DX", "title": "Device Exposure", "type": "SDTM Dataset"}, "parentProduct": {"href": "/mdr/sdtmig/md-1-1", "title": "Study Data Tabulation Model Implementation Guide for Medical Devices (SDTMIG-MD) Version 1.1", "type": "Implementation Guide"}, "priorVersion": {"href": "/mdr/sdtmig/md-1-0/datasets/DX/variables/DXADJ", "title": "Reason for Exposure Adjustment", "type": "SDTM Dataset Variable"}, "rootItem": {"href": "/mdr/root/sdtmig/datasets/DX/variables/DXADJ", "title": "Version-agnostic anchor resource for SDTMIG variable DX.DXADJ", "type": "Root Data Element"}, "self": {"href": "/mdr/sdtmig/md-1-1/datasets/DX/variables/DXADJ", "title": "Reason for Exposure Adjustment", "type": "SDTM Dataset Variable"}}, "core": "Perm", "description": "Describes reason why the exposure was adjusted from protocol-specified or expected exposure levels. Example: \"PAIN\".", "label": "Reason for Exposure Adjustment", "name": "DXADJ", "ordinal": "20", "role": "Record Qualifier", "simpleDatatype": "Char"}, {"_links": {"modelClassVariable": {"href": "/mdr/sdtm/1-7/classes/GeneralObservations/variables/--STDTC", "title": "Start Date/Time of Observation", "type": "Class Variable"}, "parentDataset": {"href": "/mdr/sdtmig/md-1-1/datasets/DX", "title": "Device Exposure", "type": "SDTM Dataset"}, "parentProduct": {"href": "/mdr/sdtmig/md-1-1", "title": "Study Data Tabulation Model Implementation Guide for Medical Devices (SDTMIG-MD) Version 1.1", "type": "Implementation Guide"}, "priorVersion": {"href": "/mdr/sdtmig/md-1-0/datasets/DX/variables/DXSTDTC", "title": "Start Date/Time of Device Exposure", "type": "SDTM Dataset Variable"}, "rootItem": {"href": "/mdr/root/sdtmig/datasets/DX/variables/DXSTDTC", "title": "Version-agnostic anchor resource for SDTMIG variable DX.DXSTDTC", "type": "Root Data Element"}, "self": {"href": "/mdr/sdtmig/md-1-1/datasets/DX/variables/DXSTDTC", "title": "Start Date/Time of Device Exposure", "type": "SDTM Dataset Variable"}}, "core": "Exp", "describedValueDomain": "ISO 8601", "description": "Start date and time of exposure. Defined by the sponsor.", "label": "Start Date/Time of Device Exposure", "name": "DXSTDTC", "ordinal": "21", "role": "Timing", "simpleDatatype": "Char"}, {"_links": {"modelClassVariable": {"href": "/mdr/sdtm/1-7/classes/GeneralObservations/variables/--ENDTC", "title": "End Date/Time of Observation", "type": "Class Variable"}, "parentDataset": {"href": "/mdr/sdtmig/md-1-1/datasets/DX", "title": "Device Exposure", "type": "SDTM Dataset"}, "parentProduct": {"href": "/mdr/sdtmig/md-1-1", "title": "Study Data Tabulation Model Implementation Guide for Medical Devices (SDTMIG-MD) Version 1.1", "type": "Implementation Guide"}, "priorVersion": {"href": "/mdr/sdtmig/md-1-0/datasets/DX/variables/DXENDTC", "title": "End Date/Time of Device Exposure", "type": "SDTM Dataset Variable"}, "rootItem": {"href": "/mdr/root/sdtmig/datasets/DX/variables/DXENDTC", "title": "Version-agnostic anchor resource for SDTMIG variable DX.DXENDTC", "type": "Root Data Element"}, "self": {"href": "/mdr/sdtmig/md-1-1/datasets/DX/variables/DXENDTC", "title": "End Date/Time of Device Exposure", "type": "SDTM Dataset Variable"}}, "core": "Perm", "describedValueDomain": "ISO 8601", "description": "End date and time of exposure. Defined by the sponsor.", "label": "End Date/Time of Device Exposure", "name": "DXENDTC", "ordinal": "22", "role": "Timing", "simpleDatatype": "Char"}, {"_links": {"modelClassVariable": {"href": "/mdr/sdtm/1-7/classes/GeneralObservations/variables/--STDY", "title": "Study Day of Start of Observation", "type": "Class Variable"}, "parentDataset": {"href": "/mdr/sdtmig/md-1-1/datasets/DX", "title": "Device Exposure", "type": "SDTM Dataset"}, "parentProduct": {"href": "/mdr/sdtmig/md-1-1", "title": "Study Data Tabulation Model Implementation Guide for Medical Devices (SDTMIG-MD) Version 1.1", "type": "Implementation Guide"}, "priorVersion": {"href": "/mdr/sdtmig/md-1-0/datasets/DX/variables/DXSTDY", "title": "Study Day of Start of Device Exposure", "type": "SDTM Dataset Variable"}, "rootItem": {"href": "/mdr/root/sdtmig/datasets/DX/variables/DXSTDY", "title": "Version-agnostic anchor resource for SDTMIG variable DX.DXSTDY", "type": "Root Data Element"}, "self": {"href": "/mdr/sdtmig/md-1-1/datasets/DX/variables/DXSTDY", "title": "Study Day of Start of Device Exposure", "type": "SDTM Dataset Variable"}}, "core": "Perm", "description": "Study day of start of exposure relative to the sponsor-defined RFSTDTC.", "label": "Study Day of Start of Device Exposure", "name": "DXSTDY", "ordinal": "23", "role": "Timing", "simpleDatatype": "Num"}, {"_links": {"modelClassVariable": {"href": "/mdr/sdtm/1-7/classes/GeneralObservations/variables/--ENDY", "title": "Study Day of End of Observation", "type": "Class Variable"}, "parentDataset": {"href": "/mdr/sdtmig/md-1-1/datasets/DX", "title": "Device Exposure", "type": "SDTM Dataset"}, "parentProduct": {"href": "/mdr/sdtmig/md-1-1", "title": "Study Data Tabulation Model Implementation Guide for Medical Devices (SDTMIG-MD) Version 1.1", "type": "Implementation Guide"}, "priorVersion": {"href": "/mdr/sdtmig/md-1-0/datasets/DX/variables/DXENDY", "title": "Study Day of End of Device Exposure", "type": "SDTM Dataset Variable"}, "rootItem": {"href": "/mdr/root/sdtmig/datasets/DX/variables/DXENDY", "title": "Version-agnostic anchor resource for SDTMIG variable DX.DXENDY", "type": "Root Data Element"}, "self": {"href": "/mdr/sdtmig/md-1-1/datasets/DX/variables/DXENDY", "title": "Study Day of End of Device Exposure", "type": "SDTM Dataset Variable"}}, "core": "Perm", "description": "Study day of end of exposure relative to the sponsor-defined RFSTDTC.", "label": "Study Day of End of Device Exposure", "name": "DXENDY", "ordinal": "24", "role": "Timing", "simpleDatatype": "Num"}, {"_links": {"modelClassVariable": {"href": "/mdr/sdtm/1-7/classes/GeneralObservations/variables/--DUR", "title": "Duration", "type": "Class Variable"}, "parentDataset": {"href": "/mdr/sdtmig/md-1-1/datasets/DX", "title": "Device Exposure", "type": "SDTM Dataset"}, "parentProduct": {"href": "/mdr/sdtmig/md-1-1", "title": "Study Data Tabulation Model Implementation Guide for Medical Devices (SDTMIG-MD) Version 1.1", "type": "Implementation Guide"}, "priorVersion": {"href": "/mdr/sdtmig/md-1-0/datasets/DX/variables/DXDUR", "title": "Duration of Device Exposure", "type": "SDTM Dataset Variable"}, "rootItem": {"href": "/mdr/root/sdtmig/datasets/DX/variables/DXDUR", "title": "Version-agnostic anchor resource for SDTMIG variable DX.DXDUR", "type": "Root Data Element"}, "self": {"href": "/mdr/sdtmig/md-1-1/datasets/DX/variables/DXDUR", "title": "Duration of Device Exposure", "type": "SDTM Dataset Variable"}}, "core": "Perm", "describedValueDomain": "ISO 8601", "description": "Collected duration for a treatment episode. Used only if collected on the CRF and not derived from start and end date/times.", "label": "Duration of Device Exposure", "name": "DXDUR", "ordinal": "25", "role": "Timing", "simpleDatatype": "Char"}], "description": "An interventions domain that contains a subject's exposure to a medical device under study. (Source: CDISC Controlled Terminology, DOMAIN, C102617, 2018-06-29)", "label": "Device Exposure", "name": "DX", "ordinal": "3"}], "description": "This SDTM class captures investigational, therapeutic and other treatments that are administered to the subject (with some actual or expected physiological effect) either as specified by the study protocol (e.g., exposure to study drug), coincident with the study assessment period (e.g., concomitant medications), or self-administered by the subject (such as use of alcohol, tobacco, or caffeine). (Source: CDISC Controlled Terminology, GNRLOBSC, C103374, 2018-06-29)", "label": "Interventions Observation Class", "name": "Interventions", "ordinal": "2"}, {"_links": {"modelClass": {"href": "/mdr/sdtm/1-7/classes/Events", "title": "Events Observation Class", "type": "Class"}, "parentClass": {"href": "/mdr/sdtmig/md-1-1/classes/GeneralObservations", "title": "General Observation Class", "type": "Class"}, "parentProduct": {"href": "/mdr/sdtmig/md-1-1", "title": "Study Data Tabulation Model Implementation Guide for Medical Devices (SDTMIG-MD) Version 1.1", "type": "Implementation Guide"}, "priorVersion": {"href": "/mdr/sdtmig/md-1-0/classes/Events", "title": "Events Observation Class", "type": "Class"}, "self": {"href": "/mdr/sdtmig/md-1-1/classes/Events", "title": "Events Observation Class", "type": "Class"}}, "datasets": [{"_links": {"parentClass": {"href": "/mdr/sdtmig/md-1-1/classes/Events", "title": "Events Observation Class", "type": "Class"}, "parentProduct": {"href": "/mdr/sdtmig/md-1-1", "title": "Study Data Tabulation Model Implementation Guide for Medical Devices (SDTMIG-MD) Version 1.1", "type": "Implementation Guide"}, "priorVersion": {"href": "/mdr/sdtmig/md-1-0/datasets/DE", "title": "Device Events", "type": "SDTM Dataset"}, "self": {"href": "/mdr/sdtmig/md-1-1/datasets/DE", "title": "Device Events", "type": "SDTM Dataset"}}, "datasetStructure": "One record per event per device", "datasetVariables": [{"_links": {"modelClassVariable": {"href": "/mdr/sdtm/1-7/classes/GeneralObservations/variables/STUDYID", "title": "Study Identifier", "type": "Class Variable"}, "parentDataset": {"href": "/mdr/sdtmig/md-1-1/datasets/DE", "title": "Device Events", "type": "SDTM Dataset"}, "parentProduct": {"href": "/mdr/sdtmig/md-1-1", "title": "Study Data Tabulation Model Implementation Guide for Medical Devices (SDTMIG-MD) Version 1.1", "type": "Implementation Guide"}, "priorVersion": {"href": "/mdr/sdtmig/md-1-0/datasets/DE/variables/STUDYID", "title": "Study Identifier", "type": "SDTM Dataset Variable"}, "rootItem": {"href": "/mdr/root/sdtmig/datasets/DE/variables/STUDYID", "title": "Version-agnostic anchor resource for SDTMIG variable DE.STUDYID", "type": "Root Data Element"}, "self": {"href": "/mdr/sdtmig/md-1-1/datasets/DE/variables/STUDYID", "title": "Study Identifier", "type": "SDTM Dataset Variable"}}, "core": "Req", "description": "Unique identifier for a study.", "label": "Study Identifier", "name": "STUDYID", "ordinal": "1", "role": "Identifier", "simpleDatatype": "Char"}, {"_links": {"modelClassVariable": {"href": "/mdr/sdtm/1-7/classes/GeneralObservations/variables/DOMAIN", "title": "Domain Abbreviation", "type": "Class Variable"}, "parentDataset": {"href": "/mdr/sdtmig/md-1-1/datasets/DE", "title": "Device Events", "type": "SDTM Dataset"}, "parentProduct": {"href": "/mdr/sdtmig/md-1-1", "title": "Study Data Tabulation Model Implementation Guide for Medical Devices (SDTMIG-MD) Version 1.1", "type": "Implementation Guide"}, "priorVersion": {"href": "/mdr/sdtmig/md-1-0/datasets/DE/variables/DOMAIN", "title": "Domain Abbreviation", "type": "SDTM Dataset Variable"}, "rootItem": {"href": "/mdr/root/sdtmig/datasets/DE/variables/DOMAIN", "title": "Version-agnostic anchor resource for SDTMIG variable DE.DOMAIN", "type": "Root Data Element"}, "self": {"href": "/mdr/sdtmig/md-1-1/datasets/DE/variables/DOMAIN", "title": "Domain Abbreviation", "type": "SDTM Dataset Variable"}}, "core": "Req", "description": "Two-character abbreviation for the domain.", "label": "Domain Abbreviation", "name": "DOMAIN", "ordinal": "2", "role": "Identifier", "simpleDatatype": "Char", "valueList": ["DE"]}, {"_links": {"modelClassVariable": {"href": "/mdr/sdtm/1-7/classes/GeneralObservations/variables/USUBJID", "title": "Unique Subject Identifier", "type": "Class Variable"}, "parentDataset": {"href": "/mdr/sdtmig/md-1-1/datasets/DE", "title": "Device Events", "type": "SDTM Dataset"}, "parentProduct": {"href": "/mdr/sdtmig/md-1-1", "title": "Study Data Tabulation Model Implementation Guide for Medical Devices (SDTMIG-MD) Version 1.1", "type": "Implementation Guide"}, "priorVersion": {"href": "/mdr/sdtmig/md-1-0/datasets/DE/variables/USUBJID", "title": "Unique Subject Identifier", "type": "SDTM Dataset Variable"}, "rootItem": {"href": "/mdr/root/sdtmig/datasets/DE/variables/USUBJID", "title": "Version-agnostic anchor resource for SDTMIG variable DE.USUBJID", "type": "Root Data Element"}, "self": {"href": "/mdr/sdtmig/md-1-1/datasets/DE/variables/USUBJID", "title": "Unique Subject Identifier", "type": "SDTM Dataset Variable"}}, "core": "Exp", "description": "Identifier used to uniquely identify a subject across all studies for all applications or submissions involving the product. Expected rather than required because events may happen to or with a device that do not involved subjects, and may even be before the device was in contact with a subject. In these cases there may not be a value for USUBJID.", "label": "Unique Subject Identifier", "name": "USUBJID", "ordinal": "3", "role": "Identifier", "simpleDatatype": "Char"}, {"_links": {"modelClassVariable": {"href": "/mdr/sdtm/1-7/classes/GeneralObservations/variables/SPDEVID", "title": "Sponsor Device Identifier", "type": "Class Variable"}, "parentDataset": {"href": "/mdr/sdtmig/md-1-1/datasets/DE", "title": "Device Events", "type": "SDTM Dataset"}, "parentProduct": {"href": "/mdr/sdtmig/md-1-1", "title": "Study Data Tabulation Model Implementation Guide for Medical Devices (SDTMIG-MD) Version 1.1", "type": "Implementation Guide"}, "priorVersion": {"href": "/mdr/sdtmig/md-1-0/datasets/DE/variables/SPDEVID", "title": "Sponsor Device Identifier", "type": "SDTM Dataset Variable"}, "rootItem": {"href": "/mdr/root/sdtmig/datasets/DE/variables/SPDEVID", "title": "Version-agnostic anchor resource for SDTMIG variable DE.SPDEVID", "type": "Root Data Element"}, "self": {"href": "/mdr/sdtmig/md-1-1/datasets/DE/variables/SPDEVID", "title": "Sponsor Device Identifier", "type": "SDTM Dataset Variable"}}, "core": "Req", "description": "Sponsor-defined identifier for the device. It must be unique for each tracked unit of the device under study, and can be at whatever level of granularity the device should be identified (e.g., model or serial number, combination of identifiers).", "label": "Sponsor Device Identifier", "name": "SPDEVID", "ordinal": "4", "role": "Identifier", "simpleDatatype": "Char"}, {"_links": {"modelClassVariable": {"href": "/mdr/sdtm/1-7/classes/GeneralObservations/variables/--SEQ", "title": "Sequence Number", "type": "Class Variable"}, "parentDataset": {"href": "/mdr/sdtmig/md-1-1/datasets/DE", "title": "Device Events", "type": "SDTM Dataset"}, "parentProduct": {"href": "/mdr/sdtmig/md-1-1", "title": "Study Data Tabulation Model Implementation Guide for Medical Devices (SDTMIG-MD) Version 1.1", "type": "Implementation Guide"}, "priorVersion": {"href": "/mdr/sdtmig/md-1-0/datasets/DE/variables/DESEQ", "title": "Device Events Sequence Number", "type": "SDTM Dataset Variable"}, "rootItem": {"href": "/mdr/root/sdtmig/datasets/DE/variables/DESEQ", "title": "Version-agnostic anchor resource for SDTMIG variable DE.DESEQ", "type": "Root Data Element"}, "self": {"href": "/mdr/sdtmig/md-1-1/datasets/DE/variables/DESEQ", "title": "Device Events Sequence Number", "type": "SDTM Dataset Variable"}}, "core": "Req", "description": "Sequence Number given to ensure uniqueness of device records within subject records within a domain. May be any valid number. It should be unique within every subject/device combination. If there is no USUBJID associated with the event, DESEQ should be unique within each SPDEVID.", "label": "Device Events Sequence Number", "name": "DESEQ", "ordinal": "5", "role": "Identifier", "simpleDatatype": "Num"}, {"_links": {"modelClassVariable": {"href": "/mdr/sdtm/1-7/classes/GeneralObservations/variables/--SPID", "title": "Sponsor-Defined Identifier", "type": "Class Variable"}, "parentDataset": {"href": "/mdr/sdtmig/md-1-1/datasets/DE", "title": "Device Events", "type": "SDTM Dataset"}, "parentProduct": {"href": "/mdr/sdtmig/md-1-1", "title": "Study Data Tabulation Model Implementation Guide for Medical Devices (SDTMIG-MD) Version 1.1", "type": "Implementation Guide"}, "priorVersion": {"href": "/mdr/sdtmig/md-1-0/datasets/DE/variables/DESPID", "title": "Sponsor-Defined Identifier", "type": "SDTM Dataset Variable"}, "rootItem": {"href": "/mdr/root/sdtmig/datasets/DE/variables/DESPID", "title": "Version-agnostic anchor resource for SDTMIG variable DE.DESPID", "type": "Root Data Element"}, "self": {"href": "/mdr/sdtmig/md-1-1/datasets/DE/variables/DESPID", "title": "Sponsor-Defined Identifier", "type": "SDTM Dataset Variable"}}, "core": "Perm", "description": "Sponsor-defined reference number. Perhaps pre-printed on the CRF as an explicit line identifier or defined in the sponsor's operational database. Note that it does not have to be numeric.", "label": "Sponsor-Defined Identifier", "name": "DESPID", "ordinal": "6", "role": "Identifier", "simpleDatatype": "Char"}, {"_links": {"modelClassVariable": {"href": "/mdr/sdtm/1-7/classes/Events/variables/--TERM", "title": "Reported Term", "type": "Class Variable"}, "parentDataset": {"href": "/mdr/sdtmig/md-1-1/datasets/DE", "title": "Device Events", "type": "SDTM Dataset"}, "parentProduct": {"href": "/mdr/sdtmig/md-1-1", "title": "Study Data Tabulation Model Implementation Guide for Medical Devices (SDTMIG-MD) Version 1.1", "type": "Implementation Guide"}, "priorVersion": {"href": "/mdr/sdtmig/md-1-0/datasets/DE/variables/DETERM", "title": "Reported Term for Device Event", "type": "SDTM Dataset Variable"}, "rootItem": {"href": "/mdr/root/sdtmig/datasets/DE/variables/DETERM", "title": "Version-agnostic anchor resource for SDTMIG variable DE.DETERM", "type": "Root Data Element"}, "self": {"href": "/mdr/sdtmig/md-1-1/datasets/DE/variables/DETERM", "title": "Reported Term for Device Event", "type": "SDTM Dataset Variable"}}, "core": "Req", "description": "Verbatim name of the observed event. Examples: \"Screw Breakage\", \"Fissure Formation\", \"Battery Issue\".", "label": "Reported Term for Device Event", "name": "DETERM", "ordinal": "7", "role": "Topic", "simpleDatatype": "Char"}, {"_links": {"modelClassVariable": {"href": "/mdr/sdtm/1-7/classes/Events/variables/--MODIFY", "title": "Modified Reported Term", "type": "Class Variable"}, "parentDataset": {"href": "/mdr/sdtmig/md-1-1/datasets/DE", "title": "Device Events", "type": "SDTM Dataset"}, "parentProduct": {"href": "/mdr/sdtmig/md-1-1", "title": "Study Data Tabulation Model Implementation Guide for Medical Devices (SDTMIG-MD) Version 1.1", "type": "Implementation Guide"}, "priorVersion": {"href": "/mdr/sdtmig/md-1-0/datasets/DE/variables/DEMODIFY", "title": "Modified Device Event Name", "type": "SDTM Dataset Variable"}, "rootItem": {"href": "/mdr/root/sdtmig/datasets/DE/variables/DEMODIFY", "title": "Version-agnostic anchor resource for SDTMIG variable DE.DEMODIFY", "type": "Root Data Element"}, "self": {"href": "/mdr/sdtmig/md-1-1/datasets/DE/variables/DEMODIFY", "title": "Modified Device Event Name", "type": "SDTM Dataset Variable"}}, "core": "Perm", "description": "The modified text for DETERM. If DETERM is modified, then the modified text is placed here.", "label": "Modified Device Event Name", "name": "DEMODIFY", "ordinal": "8", "role": "Synonym Qualifier", "simpleDatatype": "Char"}, {"_links": {"modelClassVariable": {"href": "/mdr/sdtm/1-7/classes/Events/variables/--DECOD", "title": "Dictionary-Derived Term", "type": "Class Variable"}, "parentDataset": {"href": "/mdr/sdtmig/md-1-1/datasets/DE", "title": "Device Events", "type": "SDTM Dataset"}, "parentProduct": {"href": "/mdr/sdtmig/md-1-1", "title": "Study Data Tabulation Model Implementation Guide for Medical Devices (SDTMIG-MD) Version 1.1", "type": "Implementation Guide"}, "priorVersion": {"href": "/mdr/sdtmig/md-1-0/datasets/DE/variables/DEDECOD", "title": "Device Events Dictionary-Derived Term", "type": "SDTM Dataset Variable"}, "rootItem": {"href": "/mdr/root/sdtmig/datasets/DE/variables/DEDECOD", "title": "Version-agnostic anchor resource for SDTMIG variable DE.DEDECOD", "type": "Root Data Element"}, "self": {"href": "/mdr/sdtmig/md-1-1/datasets/DE/variables/DEDECOD", "title": "Device Events Dictionary-Derived Term", "type": "SDTM Dataset Variable"}}, "core": "Req", "description": "Dictionary-derived form of the event described in DETERM. Dictionary-derived text description of DETERM or DEMODIFY. The name and version of the dictionary used to map terms must be provided in a Define.XML ExternalCodeList element.", "label": "Device Events Dictionary-Derived Term", "name": "DEDECOD", "ordinal": "9", "role": "Synonym Qualifier", "simpleDatatype": "Char"}, {"_links": {"modelClassVariable": {"href": "/mdr/sdtm/1-7/classes/Events/variables/--CAT", "title": "Category", "type": "Class Variable"}, "parentDataset": {"href": "/mdr/sdtmig/md-1-1/datasets/DE", "title": "Device Events", "type": "SDTM Dataset"}, "parentProduct": {"href": "/mdr/sdtmig/md-1-1", "title": "Study Data Tabulation Model Implementation Guide for Medical Devices (SDTMIG-MD) Version 1.1", "type": "Implementation Guide"}, "priorVersion": {"href": "/mdr/sdtmig/md-1-0/datasets/DE/variables/DECAT", "title": "Category of Device Event", "type": "SDTM Dataset Variable"}, "rootItem": {"href": "/mdr/root/sdtmig/datasets/DE/variables/DECAT", "title": "Version-agnostic anchor resource for SDTMIG variable DE.DECAT", "type": "Root Data Element"}, "self": {"href": "/mdr/sdtmig/md-1-1/datasets/DE/variables/DECAT", "title": "Category of Device Event", "type": "SDTM Dataset Variable"}}, "core": "Perm", "description": "Used to define a categorization level for events. For example, \"MALFUNCTION\" vs. \"CALIBRATION\".", "label": "Category of Device Event", "name": "DECAT", "ordinal": "10", "role": "Grouping Qualifier", "simpleDatatype": "Char"}, {"_links": {"modelClassVariable": {"href": "/mdr/sdtm/1-7/classes/Events/variables/--SCAT", "title": "Subcategory", "type": "Class Variable"}, "parentDataset": {"href": "/mdr/sdtmig/md-1-1/datasets/DE", "title": "Device Events", "type": "SDTM Dataset"}, "parentProduct": {"href": "/mdr/sdtmig/md-1-1", "title": "Study Data Tabulation Model Implementation Guide for Medical Devices (SDTMIG-MD) Version 1.1", "type": "Implementation Guide"}, "priorVersion": {"href": "/mdr/sdtmig/md-1-0/datasets/DE/variables/DESCAT", "title": "Subcategory of  Device Event", "type": "SDTM Dataset Variable"}, "rootItem": {"href": "/mdr/root/sdtmig/datasets/DE/variables/DESCAT", "title": "Version-agnostic anchor resource for SDTMIG variable DE.DESCAT", "type": "Root Data Element"}, "self": {"href": "/mdr/sdtmig/md-1-1/datasets/DE/variables/DESCAT", "title": "Subcategory of Device Event", "type": "SDTM Dataset Variable"}}, "core": "Perm", "description": "Used to define a further category level for events. For example, \"EXTERNAL\" vs. \"INTERNAL\".", "label": "Subcategory of Device Event", "name": "DESCAT", "ordinal": "11", "role": "Grouping Qualifier", "simpleDatatype": "Char"}, {"_links": {"codelist": [{"href": "/mdr/root/ct/sdtmct/codelists/C66742", "title": "Version-agnostic anchor resource for codelist C66742", "type": "Root Value Domain"}], "modelClassVariable": {"href": "/mdr/sdtm/1-7/classes/Events/variables/--PRESP", "title": "Pre-Specified", "type": "Class Variable"}, "parentDataset": {"href": "/mdr/sdtmig/md-1-1/datasets/DE", "title": "Device Events", "type": "SDTM Dataset"}, "parentProduct": {"href": "/mdr/sdtmig/md-1-1", "title": "Study Data Tabulation Model Implementation Guide for Medical Devices (SDTMIG-MD) Version 1.1", "type": "Implementation Guide"}, "priorVersion": {"href": "/mdr/sdtmig/md-1-0/datasets/DE/variables/DEPRESP", "title": "Pre-Specified Device Event", "type": "SDTM Dataset Variable"}, "rootItem": {"href": "/mdr/root/sdtmig/datasets/DE/variables/DEPRESP", "title": "Version-agnostic anchor resource for SDTMIG variable DE.DEPRESP", "type": "Root Data Element"}, "self": {"href": "/mdr/sdtmig/md-1-1/datasets/DE/variables/DEPRESP", "title": "Pre-Specified Device Event", "type": "SDTM Dataset Variable"}}, "core": "Perm", "description": "Used to indicate whether (Y/null) information about a specific event was solicited on the CRF. For example, DETERM could contain a list of malfunctions that are being specifically evaluated. DEPRESP would identify those (Y), whereas any spontaneous events would have DEPREST null.", "label": "Pre-Specified Device Event", "name": "DEPRESP", "ordinal": "12", "role": "Record Qualifier", "simpleDatatype": "Char"}, {"_links": {"codelist": [{"href": "/mdr/root/ct/sdtmct/codelists/C66742", "title": "Version-agnostic anchor resource for codelist C66742", "type": "Root Value Domain"}], "modelClassVariable": {"href": "/mdr/sdtm/1-7/classes/Events/variables/--OCCUR", "title": "Occurrence Indicator", "type": "Class Variable"}, "parentDataset": {"href": "/mdr/sdtmig/md-1-1/datasets/DE", "title": "Device Events", "type": "SDTM Dataset"}, "parentProduct": {"href": "/mdr/sdtmig/md-1-1", "title": "Study Data Tabulation Model Implementation Guide for Medical Devices (SDTMIG-MD) Version 1.1", "type": "Implementation Guide"}, "priorVersion": {"href": "/mdr/sdtmig/md-1-0/datasets/DE/variables/DEOCCUR", "title": "Device Event Occurrence", "type": "SDTM Dataset Variable"}, "rootItem": {"href": "/mdr/root/sdtmig/datasets/DE/variables/DEOCCUR", "title": "Version-agnostic anchor resource for SDTMIG variable DE.DEOCCUR", "type": "Root Data Element"}, "self": {"href": "/mdr/sdtmig/md-1-1/datasets/DE/variables/DEOCCUR", "title": "Device Event Occurrence", "type": "SDTM Dataset Variable"}}, "core": "Perm", "description": "When information about specific events is solicited, DEOCCUR is used to indicate whether or not (Y/N) a particular pre-specified event occurred. Values are null for events not specifically solicited.", "label": "Device Event Occurrence", "name": "DEOCCUR", "ordinal": "13", "role": "Record Qualifier", "simpleDatatype": "Char"}, {"_links": {"codelist": [{"href": "/mdr/root/ct/sdtmct/codelists/C66789", "title": "Version-agnostic anchor resource for codelist C66789", "type": "Root Value Domain"}], "modelClassVariable": {"href": "/mdr/sdtm/1-7/classes/Events/variables/--STAT", "title": "Completion Status", "type": "Class Variable"}, "parentDataset": {"href": "/mdr/sdtmig/md-1-1/datasets/DE", "title": "Device Events", "type": "SDTM Dataset"}, "parentProduct": {"href": "/mdr/sdtmig/md-1-1", "title": "Study Data Tabulation Model Implementation Guide for Medical Devices (SDTMIG-MD) Version 1.1", "type": "Implementation Guide"}, "priorVersion": {"href": "/mdr/sdtmig/md-1-0/datasets/DE/variables/DESTAT", "title": "Device Event Collection Status", "type": "SDTM Dataset Variable"}, "rootItem": {"href": "/mdr/root/sdtmig/datasets/DE/variables/DESTAT", "title": "Version-agnostic anchor resource for SDTMIG variable DE.DESTAT", "type": "Root Data Element"}, "self": {"href": "/mdr/sdtmig/md-1-1/datasets/DE/variables/DESTAT", "title": "Device Event Collection Status", "type": "SDTM Dataset Variable"}}, "core": "Perm", "description": "The status indicates that the pre-specified question was not answered. For example, if equipment operation requires checking, such as checking an event log to detect events. Capturing that the checks were not completed may be relevant to interpreting the study data.", "label": "Device Event Collection Status", "name": "DESTAT", "ordinal": "14", "role": "Record Qualifier", "simpleDatatype": "Char"}, {"_links": {"modelClassVariable": {"href": "/mdr/sdtm/1-7/classes/Events/variables/--REASND", "title": "Reason Not Done", "type": "Class Variable"}, "parentDataset": {"href": "/mdr/sdtmig/md-1-1/datasets/DE", "title": "Device Events", "type": "SDTM Dataset"}, "parentProduct": {"href": "/mdr/sdtmig/md-1-1", "title": "Study Data Tabulation Model Implementation Guide for Medical Devices (SDTMIG-MD) Version 1.1", "type": "Implementation Guide"}, "priorVersion": {"href": "/mdr/sdtmig/md-1-0/datasets/DE/variables/DEREASND", "title": "Reason Device Event Not Collected", "type": "SDTM Dataset Variable"}, "rootItem": {"href": "/mdr/root/sdtmig/datasets/DE/variables/DEREASND", "title": "Version-agnostic anchor resource for SDTMIG variable DE.DEREASND", "type": "Root Data Element"}, "self": {"href": "/mdr/sdtmig/md-1-1/datasets/DE/variables/DEREASND", "title": "Reason Device Event Not Collected", "type": "SDTM Dataset Variable"}}, "core": "Perm", "description": "Reason DESTAT was \"NOT DONE\". This variable should only be used if there are pre-specified events.", "label": "Reason Device Event Not Collected", "name": "DEREASND", "ordinal": "15", "role": "Record Qualifier", "simpleDatatype": "Char"}, {"_links": {"modelClassVariable": {"href": "/mdr/sdtm/1-7/classes/Events/variables/--SEV", "title": "Severity/Intensity", "type": "Class Variable"}, "parentDataset": {"href": "/mdr/sdtmig/md-1-1/datasets/DE", "title": "Device Events", "type": "SDTM Dataset"}, "parentProduct": {"href": "/mdr/sdtmig/md-1-1", "title": "Study Data Tabulation Model Implementation Guide for Medical Devices (SDTMIG-MD) Version 1.1", "type": "Implementation Guide"}, "priorVersion": {"href": "/mdr/sdtmig/md-1-0/datasets/DE/variables/DESEV", "title": "Device Event Severity", "type": "SDTM Dataset Variable"}, "rootItem": {"href": "/mdr/root/sdtmig/datasets/DE/variables/DESEV", "title": "Version-agnostic anchor resource for SDTMIG variable DE.DESEV", "type": "Root Data Element"}, "self": {"href": "/mdr/sdtmig/md-1-1/datasets/DE/variables/DESEV", "title": "Device Event Severity", "type": "SDTM Dataset Variable"}}, "core": "Perm", "description": "Describes the severity of the event, (e.g, the severity of a malfunction).", "label": "Device Event Severity", "name": "DESEV", "ordinal": "16", "role": "Record Qualifier", "simpleDatatype": "Char"}, {"_links": {"modelClassVariable": {"href": "/mdr/sdtm/1-7/classes/Events/variables/--ACNDEV", "title": "Action Taken with Device", "type": "Class Variable"}, "parentDataset": {"href": "/mdr/sdtmig/md-1-1/datasets/DE", "title": "Device Events", "type": "SDTM Dataset"}, "parentProduct": {"href": "/mdr/sdtmig/md-1-1", "title": "Study Data Tabulation Model Implementation Guide for Medical Devices (SDTMIG-MD) Version 1.1", "type": "Implementation Guide"}, "priorVersion": {"href": "/mdr/sdtmig/md-1-0/datasets/DE/variables/DEACNDEV", "title": "Action Taken with Device", "type": "SDTM Dataset Variable"}, "rootItem": {"href": "/mdr/root/sdtmig/datasets/DE/variables/DEACNDEV", "title": "Version-agnostic anchor resource for SDTMIG variable DE.DEACNDEV", "type": "Root Data Element"}, "self": {"href": "/mdr/sdtmig/md-1-1/datasets/DE/variables/DEACNDEV", "title": "Action Taken with Device", "type": "SDTM Dataset Variable"}}, "core": "Perm", "description": "Describes Action Taken with respect to the device. Action Taken may include removal, calibration, reprogramming, and so on. Action is usually in response to some event, for example, a subject's adverse event.", "label": "Action Taken with Device", "name": "DEACNDEV", "ordinal": "17", "role": "Record Qualifier", "simpleDatatype": "Char"}, {"_links": {"modelClassVariable": {"href": "/mdr/sdtm/1-7/classes/GeneralObservations/variables/VISITNUM", "title": "Visit Number", "type": "Class Variable"}, "parentDataset": {"href": "/mdr/sdtmig/md-1-1/datasets/DE", "title": "Device Events", "type": "SDTM Dataset"}, "parentProduct": {"href": "/mdr/sdtmig/md-1-1", "title": "Study Data Tabulation Model Implementation Guide for Medical Devices (SDTMIG-MD) Version 1.1", "type": "Implementation Guide"}, "priorVersion": {"href": "/mdr/sdtmig/md-1-0/datasets/DE/variables/VISITNUM", "title": "Visit Number", "type": "SDTM Dataset Variable"}, "rootItem": {"href": "/mdr/root/sdtmig/datasets/DE/variables/VISITNUM", "title": "Version-agnostic anchor resource for SDTMIG variable DE.VISITNUM", "type": "Root Data Element"}, "self": {"href": "/mdr/sdtmig/md-1-1/datasets/DE/variables/VISITNUM", "title": "Visit Number", "type": "SDTM Dataset Variable"}}, "core": "Exp", "description": "Clinical encounter number. Numeric version of VISIT, used for sorting.", "label": "Visit Number", "name": "VISITNUM", "ordinal": "18", "role": "Timing", "simpleDatatype": "Num"}, {"_links": {"modelClassVariable": {"href": "/mdr/sdtm/1-7/classes/GeneralObservations/variables/VISIT", "title": "Visit Name", "type": "Class Variable"}, "parentDataset": {"href": "/mdr/sdtmig/md-1-1/datasets/DE", "title": "Device Events", "type": "SDTM Dataset"}, "parentProduct": {"href": "/mdr/sdtmig/md-1-1", "title": "Study Data Tabulation Model Implementation Guide for Medical Devices (SDTMIG-MD) Version 1.1", "type": "Implementation Guide"}, "priorVersion": {"href": "/mdr/sdtmig/md-1-0/datasets/DE/variables/VISIT", "title": "Visit Name", "type": "SDTM Dataset Variable"}, "rootItem": {"href": "/mdr/root/sdtmig/datasets/DE/variables/VISIT", "title": "Version-agnostic anchor resource for SDTMIG variable DE.VISIT", "type": "Root Data Element"}, "self": {"href": "/mdr/sdtmig/md-1-1/datasets/DE/variables/VISIT", "title": "Visit Name", "type": "SDTM Dataset Variable"}}, "core": "Perm", "description": "Protocol-defined description of clinical encounter. May be used in addition to VISITNUM and/or VISITDY.", "label": "Visit Name", "name": "VISIT", "ordinal": "19", "role": "Timing", "simpleDatatype": "Char"}, {"_links": {"modelClassVariable": {"href": "/mdr/sdtm/1-7/classes/GeneralObservations/variables/VISITDY", "title": "Planned Study Day of Visit", "type": "Class Variable"}, "parentDataset": {"href": "/mdr/sdtmig/md-1-1/datasets/DE", "title": "Device Events", "type": "SDTM Dataset"}, "parentProduct": {"href": "/mdr/sdtmig/md-1-1", "title": "Study Data Tabulation Model Implementation Guide for Medical Devices (SDTMIG-MD) Version 1.1", "type": "Implementation Guide"}, "priorVersion": {"href": "/mdr/sdtmig/md-1-0/datasets/DE/variables/VISITDY", "title": "Planned Study Day of Visit", "type": "SDTM Dataset Variable"}, "rootItem": {"href": "/mdr/root/sdtmig/datasets/DE/variables/VISITDY", "title": "Version-agnostic anchor resource for SDTMIG variable DE.VISITDY", "type": "Root Data Element"}, "self": {"href": "/mdr/sdtmig/md-1-1/datasets/DE/variables/VISITDY", "title": "Planned Study Day of Visit", "type": "SDTM Dataset Variable"}}, "core": "Perm", "description": "Planned study day of the visit based upon RFSTDTC in Demographics. This value is usually derived.", "label": "Planned Study Day of Visit", "name": "VISITDY", "ordinal": "20", "role": "Timing", "simpleDatatype": "Num"}, {"_links": {"modelClassVariable": {"href": "/mdr/sdtm/1-7/classes/GeneralObservations/variables/--DTC", "title": "Date/Time of Collection", "type": "Class Variable"}, "parentDataset": {"href": "/mdr/sdtmig/md-1-1/datasets/DE", "title": "Device Events", "type": "SDTM Dataset"}, "parentProduct": {"href": "/mdr/sdtmig/md-1-1", "title": "Study Data Tabulation Model Implementation Guide for Medical Devices (SDTMIG-MD) Version 1.1", "type": "Implementation Guide"}, "priorVersion": {"href": "/mdr/sdtmig/md-1-0/datasets/DE/variables/DEDTC", "title": "Date of Device Event Data Collection", "type": "SDTM Dataset Variable"}, "rootItem": {"href": "/mdr/root/sdtmig/datasets/DE/variables/DEDTC", "title": "Version-agnostic anchor resource for SDTMIG variable DE.DEDTC", "type": "Root Data Element"}, "self": {"href": "/mdr/sdtmig/md-1-1/datasets/DE/variables/DEDTC", "title": "Date of Device Event Data Collection", "type": "SDTM Dataset Variable"}}, "core": "Perm", "describedValueDomain": "ISO 8601", "description": "Date the device event information was collected. This may be reported if the event (e.g., malfunction) is discovered on a different date from the event.", "label": "Date of Device Event Data Collection", "name": "DEDTC", "ordinal": "21", "role": "Timing", "simpleDatatype": "Char"}, {"_links": {"modelClassVariable": {"href": "/mdr/sdtm/1-7/classes/GeneralObservations/variables/--STDTC", "title": "Start Date/Time of Observation", "type": "Class Variable"}, "parentDataset": {"href": "/mdr/sdtmig/md-1-1/datasets/DE", "title": "Device Events", "type": "SDTM Dataset"}, "parentProduct": {"href": "/mdr/sdtmig/md-1-1", "title": "Study Data Tabulation Model Implementation Guide for Medical Devices (SDTMIG-MD) Version 1.1", "type": "Implementation Guide"}, "priorVersion": {"href": "/mdr/sdtmig/md-1-0/datasets/DE/variables/DESTDTC", "title": "Start Date/Time of Device Event", "type": "SDTM Dataset Variable"}, "rootItem": {"href": "/mdr/root/sdtmig/datasets/DE/variables/DESTDTC", "title": "Version-agnostic anchor resource for SDTMIG variable DE.DESTDTC", "type": "Root Data Element"}, "self": {"href": "/mdr/sdtmig/md-1-1/datasets/DE/variables/DESTDTC", "title": "Start Date/Time of Device Event", "type": "SDTM Dataset Variable"}}, "core": "Perm", "describedValueDomain": "ISO 8601", "description": "Start date/time of the device event. If the event happened at a single point in time, DESTDTC is used.", "label": "Start Date/Time of Device Event", "name": "DESTDTC", "ordinal": "22", "role": "Timing", "simpleDatatype": "Char"}, {"_links": {"modelClassVariable": {"href": "/mdr/sdtm/1-7/classes/GeneralObservations/variables/--ENDTC", "title": "End Date/Time of Observation", "type": "Class Variable"}, "parentDataset": {"href": "/mdr/sdtmig/md-1-1/datasets/DE", "title": "Device Events", "type": "SDTM Dataset"}, "parentProduct": {"href": "/mdr/sdtmig/md-1-1", "title": "Study Data Tabulation Model Implementation Guide for Medical Devices (SDTMIG-MD) Version 1.1", "type": "Implementation Guide"}, "priorVersion": {"href": "/mdr/sdtmig/md-1-0/datasets/DE/variables/DEENDTC", "title": "End Date/Time of Device Event", "type": "SDTM Dataset Variable"}, "rootItem": {"href": "/mdr/root/sdtmig/datasets/DE/variables/DEENDTC", "title": "Version-agnostic anchor resource for SDTMIG variable DE.DEENDTC", "type": "Root Data Element"}, "self": {"href": "/mdr/sdtmig/md-1-1/datasets/DE/variables/DEENDTC", "title": "End Date/Time of Device Event", "type": "SDTM Dataset Variable"}}, "core": "Perm", "describedValueDomain": "ISO 8601", "description": "End date/time of the device event. If an event lasted over a period of time, DEENDTC can be used to capture the end date/time.", "label": "End Date/Time of Device Event", "name": "DEENDTC", "ordinal": "23", "role": "Timing", "simpleDatatype": "Char"}, {"_links": {"modelClassVariable": {"href": "/mdr/sdtm/1-7/classes/GeneralObservations/variables/--DY", "title": "Study Day of Visit/Collection/Exam", "type": "Class Variable"}, "parentDataset": {"href": "/mdr/sdtmig/md-1-1/datasets/DE", "title": "Device Events", "type": "SDTM Dataset"}, "parentProduct": {"href": "/mdr/sdtmig/md-1-1", "title": "Study Data Tabulation Model Implementation Guide for Medical Devices (SDTMIG-MD) Version 1.1", "type": "Implementation Guide"}, "priorVersion": {"href": "/mdr/sdtmig/md-1-0/datasets/DE/variables/DEDY", "title": "Study Day of Device Event Data Collection", "type": "SDTM Dataset Variable"}, "rootItem": {"href": "/mdr/root/sdtmig/datasets/DE/variables/DEDY", "title": "Version-agnostic anchor resource for SDTMIG variable DE.DEDY", "type": "Root Data Element"}, "self": {"href": "/mdr/sdtmig/md-1-1/datasets/DE/variables/DEDY", "title": "Study Day of Start of Tracking Event", "type": "SDTM Dataset Variable"}}, "core": "Perm", "description": "Study day of Device Event observation, measured as integer days. Algorithm for calculations must be relative to the sponsor-defined RFSTDTC variable in Demographics.", "label": "Study Day of Start of Tracking Event", "name": "DEDY", "ordinal": "24", "role": "Timing", "simpleDatatype": "Num"}, {"_links": {"modelClassVariable": {"href": "/mdr/sdtm/1-7/classes/GeneralObservations/variables/--STDY", "title": "Study Day of Start of Observation", "type": "Class Variable"}, "parentDataset": {"href": "/mdr/sdtmig/md-1-1/datasets/DE", "title": "Device Events", "type": "SDTM Dataset"}, "parentProduct": {"href": "/mdr/sdtmig/md-1-1", "title": "Study Data Tabulation Model Implementation Guide for Medical Devices (SDTMIG-MD) Version 1.1", "type": "Implementation Guide"}, "priorVersion": {"href": "/mdr/sdtmig/md-1-0/datasets/DE/variables/DESTDY", "title": "Study Day of Device Event Start Date/Time", "type": "SDTM Dataset Variable"}, "rootItem": {"href": "/mdr/root/sdtmig/datasets/DE/variables/DESTDY", "title": "Version-agnostic anchor resource for SDTMIG variable DE.DESTDY", "type": "Root Data Element"}, "self": {"href": "/mdr/sdtmig/md-1-1/datasets/DE/variables/DESTDY", "title": "Study Day of Device Event Start", "type": "SDTM Dataset Variable"}}, "core": "Perm", "description": "Study day of start of Device Event, measured as integer days. Algorithm for calculations must be relative to the sponsor-defined RFSTDTC variable in Demographics.", "label": "Study Day of Device Event Start", "name": "DESTDY", "ordinal": "25", "role": "Timing", "simpleDatatype": "Num"}, {"_links": {"modelClassVariable": {"href": "/mdr/sdtm/1-7/classes/GeneralObservations/variables/--ENDY", "title": "Study Day of End of Observation", "type": "Class Variable"}, "parentDataset": {"href": "/mdr/sdtmig/md-1-1/datasets/DE", "title": "Device Events", "type": "SDTM Dataset"}, "parentProduct": {"href": "/mdr/sdtmig/md-1-1", "title": "Study Data Tabulation Model Implementation Guide for Medical Devices (SDTMIG-MD) Version 1.1", "type": "Implementation Guide"}, "priorVersion": {"href": "/mdr/sdtmig/md-1-0/datasets/DE/variables/DEENDY", "title": "Study Day of Device Event End Date/Time", "type": "SDTM Dataset Variable"}, "rootItem": {"href": "/mdr/root/sdtmig/datasets/DE/variables/DEENDY", "title": "Version-agnostic anchor resource for SDTMIG variable DE.DEENDY", "type": "Root Data Element"}, "self": {"href": "/mdr/sdtmig/md-1-1/datasets/DE/variables/DEENDY", "title": "Study Day of Device Event End", "type": "SDTM Dataset Variable"}}, "core": "Perm", "description": "Study day of end of Device Event, measured as integer days. Algorithm for calculations must be relative to the sponsor-defined RFENDTC variable in Demographics.", "label": "Study Day of Device Event End", "name": "DEENDY", "ordinal": "26", "role": "Timing", "simpleDatatype": "Num"}], "description": "An events domain that contains data for device-related events. (Source: CDISC Controlled Terminology, DOMAIN, C102616, 2018-06-29)", "label": "Device Events", "name": "DE", "ordinal": "4"}, {"_links": {"parentClass": {"href": "/mdr/sdtmig/md-1-1/classes/Events", "title": "Events Observation Class", "type": "Class"}, "parentProduct": {"href": "/mdr/sdtmig/md-1-1", "title": "Study Data Tabulation Model Implementation Guide for Medical Devices (SDTMIG-MD) Version 1.1", "type": "Implementation Guide"}, "priorVersion": {"href": "/mdr/sdtmig/md-1-0/datasets/DT", "title": "Device Tracking and Disposition", "type": "SDTM Dataset"}, "self": {"href": "/mdr/sdtmig/md-1-1/datasets/DT", "title": "Device Tracking and Disposition", "type": "SDTM Dataset"}}, "datasetStructure": "One record per device tracking event", "datasetVariables": [{"_links": {"modelClassVariable": {"href": "/mdr/sdtm/1-7/classes/GeneralObservations/variables/STUDYID", "title": "Study Identifier", "type": "Class Variable"}, "parentDataset": {"href": "/mdr/sdtmig/md-1-1/datasets/DT", "title": "Device Tracking and Disposition", "type": "SDTM Dataset"}, "parentProduct": {"href": "/mdr/sdtmig/md-1-1", "title": "Study Data Tabulation Model Implementation Guide for Medical Devices (SDTMIG-MD) Version 1.1", "type": "Implementation Guide"}, "priorVersion": {"href": "/mdr/sdtmig/md-1-0/datasets/DT/variables/STUDYID", "title": "Study Identifier", "type": "SDTM Dataset Variable"}, "rootItem": {"href": "/mdr/root/sdtmig/datasets/DT/variables/STUDYID", "title": "Version-agnostic anchor resource for SDTMIG variable DT.STUDYID", "type": "Root Data Element"}, "self": {"href": "/mdr/sdtmig/md-1-1/datasets/DT/variables/STUDYID", "title": "Study Identifier", "type": "SDTM Dataset Variable"}}, "core": "Req", "description": "Unique identifier for a study.", "label": "Study Identifier", "name": "STUDYID", "ordinal": "1", "role": "Identifier", "simpleDatatype": "Char"}, {"_links": {"modelClassVariable": {"href": "/mdr/sdtm/1-7/classes/GeneralObservations/variables/DOMAIN", "title": "Domain Abbreviation", "type": "Class Variable"}, "parentDataset": {"href": "/mdr/sdtmig/md-1-1/datasets/DT", "title": "Device Tracking and Disposition", "type": "SDTM Dataset"}, "parentProduct": {"href": "/mdr/sdtmig/md-1-1", "title": "Study Data Tabulation Model Implementation Guide for Medical Devices (SDTMIG-MD) Version 1.1", "type": "Implementation Guide"}, "priorVersion": {"href": "/mdr/sdtmig/md-1-0/datasets/DT/variables/DOMAIN", "title": "Domain Abbreviation", "type": "SDTM Dataset Variable"}, "rootItem": {"href": "/mdr/root/sdtmig/datasets/DT/variables/DOMAIN", "title": "Version-agnostic anchor resource for SDTMIG variable DT.DOMAIN", "type": "Root Data Element"}, "self": {"href": "/mdr/sdtmig/md-1-1/datasets/DT/variables/DOMAIN", "title": "Domain Abbreviation", "type": "SDTM Dataset Variable"}}, "core": "Req", "description": "Two-character abbreviation for the domain.", "label": "Domain Abbreviation", "name": "DOMAIN", "ordinal": "2", "role": "Identifier", "simpleDatatype": "Char", "valueList": ["DT"]}, {"_links": {"modelClassVariable": {"href": "/mdr/sdtm/1-7/classes/GeneralObservations/variables/SPDEVID", "title": "Sponsor Device Identifier", "type": "Class Variable"}, "parentDataset": {"href": "/mdr/sdtmig/md-1-1/datasets/DT", "title": "Device Tracking and Disposition", "type": "SDTM Dataset"}, "parentProduct": {"href": "/mdr/sdtmig/md-1-1", "title": "Study Data Tabulation Model Implementation Guide for Medical Devices (SDTMIG-MD) Version 1.1", "type": "Implementation Guide"}, "priorVersion": {"href": "/mdr/sdtmig/md-1-0/datasets/DT/variables/SPDEVID", "title": "Sponsor Device Identifier", "type": "SDTM Dataset Variable"}, "rootItem": {"href": "/mdr/root/sdtmig/datasets/DT/variables/SPDEVID", "title": "Version-agnostic anchor resource for SDTMIG variable DT.SPDEVID", "type": "Root Data Element"}, "self": {"href": "/mdr/sdtmig/md-1-1/datasets/DT/variables/SPDEVID", "title": "Sponsor Device Identifier", "type": "SDTM Dataset Variable"}}, "core": "Req", "description": "Sponsor-defined identifier for the device. It must be unique for each tracked unit of the device under study, and can be at whatever level of granularity the device should be identified (e.g., model or serial number, combination of identifiers).", "label": "Sponsor Device Identifier", "name": "SPDEVID", "ordinal": "3", "role": "Identifier", "simpleDatatype": "Char"}, {"_links": {"modelClassVariable": {"href": "/mdr/sdtm/1-7/classes/GeneralObservations/variables/--SEQ", "title": "Sequence Number", "type": "Class Variable"}, "parentDataset": {"href": "/mdr/sdtmig/md-1-1/datasets/DT", "title": "Device Tracking and Disposition", "type": "SDTM Dataset"}, "parentProduct": {"href": "/mdr/sdtmig/md-1-1", "title": "Study Data Tabulation Model Implementation Guide for Medical Devices (SDTMIG-MD) Version 1.1", "type": "Implementation Guide"}, "priorVersion": {"href": "/mdr/sdtmig/md-1-0/datasets/DT/variables/DTSEQ", "title": "Sequence Number", "type": "SDTM Dataset Variable"}, "rootItem": {"href": "/mdr/root/sdtmig/datasets/DT/variables/DTSEQ", "title": "Version-agnostic anchor resource for SDTMIG variable DT.DTSEQ", "type": "Root Data Element"}, "self": {"href": "/mdr/sdtmig/md-1-1/datasets/DT/variables/DTSEQ", "title": "Sequence Number", "type": "SDTM Dataset Variable"}}, "core": "Req", "description": "Sequence Number given to ensure uniqueness of device records within subject records (if applicable) within a domain. May be any valid number. Should be unique within each SPDEVID.", "label": "Sequence Number", "name": "DTSEQ", "ordinal": "4", "role": "Identifier", "simpleDatatype": "Num"}, {"_links": {"modelClassVariable": {"href": "/mdr/sdtm/1-7/classes/Events/variables/--TERM", "title": "Reported Term", "type": "Class Variable"}, "parentDataset": {"href": "/mdr/sdtmig/md-1-1/datasets/DT", "title": "Device Tracking and Disposition", "type": "SDTM Dataset"}, "parentProduct": {"href": "/mdr/sdtmig/md-1-1", "title": "Study Data Tabulation Model Implementation Guide for Medical Devices (SDTMIG-MD) Version 1.1", "type": "Implementation Guide"}, "priorVersion": {"href": "/mdr/sdtmig/md-1-0/datasets/DT/variables/DTTERM", "title": "Reported Term for the Tracking Event", "type": "SDTM Dataset Variable"}, "rootItem": {"href": "/mdr/root/sdtmig/datasets/DT/variables/DTTERM", "title": "Version-agnostic anchor resource for SDTMIG variable DT.DTTERM", "type": "Root Data Element"}, "self": {"href": "/mdr/sdtmig/md-1-1/datasets/DT/variables/DTTERM", "title": "Reported Term for the Tracking Event", "type": "SDTM Dataset Variable"}}, "core": "Req", "description": "Verbatim or preprinted term for the activity that occurs. Example: \"Shipped\", \"Returned\", \"Installed\", \"Implanted\", \"Explanted\".", "label": "Reported Term for the Tracking Event", "name": "DTTERM", "ordinal": "5", "role": "Topic", "simpleDatatype": "Char"}, {"_links": {"modelClassVariable": {"href": "/mdr/sdtm/1-7/classes/Events/variables/--MODIFY", "title": "Modified Reported Term", "type": "Class Variable"}, "parentDataset": {"href": "/mdr/sdtmig/md-1-1/datasets/DT", "title": "Device Tracking and Disposition", "type": "SDTM Dataset"}, "parentProduct": {"href": "/mdr/sdtmig/md-1-1", "title": "Study Data Tabulation Model Implementation Guide for Medical Devices (SDTMIG-MD) Version 1.1", "type": "Implementation Guide"}, "priorVersion": {"href": "/mdr/sdtmig/md-1-0/datasets/DT/variables/DTMODIFY", "title": "Modified Reported Term", "type": "SDTM Dataset Variable"}, "rootItem": {"href": "/mdr/root/sdtmig/datasets/DT/variables/DTMODIFY", "title": "Version-agnostic anchor resource for SDTMIG variable DT.DTMODIFY", "type": "Root Data Element"}, "self": {"href": "/mdr/sdtmig/md-1-1/datasets/DT/variables/DTMODIFY", "title": "Modified Reported Term", "type": "SDTM Dataset Variable"}}, "core": "Perm", "description": "Modified term entered to allow mapping of verbatim term to dictionary term. If DTTERM is modified to facilitate coding, then DTMODIFY will contain the modified text.", "label": "Modified Reported Term", "name": "DTMODIFY", "ordinal": "6", "role": "Synonym Qualifier", "simpleDatatype": "Char"}, {"_links": {"modelClassVariable": {"href": "/mdr/sdtm/1-7/classes/Events/variables/--DECOD", "title": "Dictionary-Derived Term", "type": "Class Variable"}, "parentDataset": {"href": "/mdr/sdtmig/md-1-1/datasets/DT", "title": "Device Tracking and Disposition", "type": "SDTM Dataset"}, "parentProduct": {"href": "/mdr/sdtmig/md-1-1", "title": "Study Data Tabulation Model Implementation Guide for Medical Devices (SDTMIG-MD) Version 1.1", "type": "Implementation Guide"}, "priorVersion": {"href": "/mdr/sdtmig/md-1-0/datasets/DT/variables/DTDECOD", "title": "Standardized Tracking Term", "type": "SDTM Dataset Variable"}, "rootItem": {"href": "/mdr/root/sdtmig/datasets/DT/variables/DTDECOD", "title": "Version-agnostic anchor resource for SDTMIG variable DT.DTDECOD", "type": "Root Data Element"}, "self": {"href": "/mdr/sdtmig/md-1-1/datasets/DT/variables/DTDECOD", "title": "Standardized Tracking Term", "type": "SDTM Dataset Variable"}}, "core": "Perm", "description": "Dictionary-derived text description of DTTERM or DTMODIFY. If an external controlled terminology is used, the name and version of the dictionary used to map terms must be provided in a Define-XML ExternalCodeList element.", "label": "Standardized Tracking Term", "name": "DTDECOD", "ordinal": "7", "role": "Synonym Qualifier", "simpleDatatype": "Char"}, {"_links": {"modelClassVariable": {"href": "/mdr/sdtm/1-7/classes/Events/variables/--CAT", "title": "Category", "type": "Class Variable"}, "parentDataset": {"href": "/mdr/sdtmig/md-1-1/datasets/DT", "title": "Device Tracking and Disposition", "type": "SDTM Dataset"}, "parentProduct": {"href": "/mdr/sdtmig/md-1-1", "title": "Study Data Tabulation Model Implementation Guide for Medical Devices (SDTMIG-MD) Version 1.1", "type": "Implementation Guide"}, "priorVersion": {"href": "/mdr/sdtmig/md-1-0/datasets/DT/variables/DTCAT", "title": "Category for Device Tracking Event", "type": "SDTM Dataset Variable"}, "rootItem": {"href": "/mdr/root/sdtmig/datasets/DT/variables/DTCAT", "title": "Version-agnostic anchor resource for SDTMIG variable DT.DTCAT", "type": "Root Data Element"}, "self": {"href": "/mdr/sdtmig/md-1-1/datasets/DT/variables/DTCAT", "title": "Category for Device Tracking Event", "type": "SDTM Dataset Variable"}}, "core": "Exp", "description": "Defines a categorization level for a group of related records. Examples: categorize by tracking event type (e.g., \"DOMESTIC\" vs. \"INTERNATIONAL\").", "label": "Category for Device Tracking Event", "name": "DTCAT", "ordinal": "8", "role": "Grouping Qualifier", "simpleDatatype": "Char"}, {"_links": {"modelClassVariable": {"href": "/mdr/sdtm/1-7/classes/Events/variables/--SCAT", "title": "Subcategory", "type": "Class Variable"}, "parentDataset": {"href": "/mdr/sdtmig/md-1-1/datasets/DT", "title": "Device Tracking and Disposition", "type": "SDTM Dataset"}, "parentProduct": {"href": "/mdr/sdtmig/md-1-1", "title": "Study Data Tabulation Model Implementation Guide for Medical Devices (SDTMIG-MD) Version 1.1", "type": "Implementation Guide"}, "priorVersion": {"href": "/mdr/sdtmig/md-1-0/datasets/DT/variables/DTSCAT", "title": "Subcategory for Device Tracking Event", "type": "SDTM Dataset Variable"}, "rootItem": {"href": "/mdr/root/sdtmig/datasets/DT/variables/DTSCAT", "title": "Version-agnostic anchor resource for SDTMIG variable DT.DTSCAT", "type": "Root Data Element"}, "self": {"href": "/mdr/sdtmig/md-1-1/datasets/DT/variables/DTSCAT", "title": "Subcategory for Device Tracking Event", "type": "SDTM Dataset Variable"}}, "core": "Perm", "description": "Defines a further categorization level for a group of related conditions or events.", "label": "Subcategory for Device Tracking Event", "name": "DTSCAT", "ordinal": "9", "role": "Grouping Qualifier", "simpleDatatype": "Char"}, {"_links": {"modelClassVariable": {"href": "/mdr/sdtm/1-7/classes/Events/variables/--PARTY", "title": "Accountable Party", "type": "Class Variable"}, "parentDataset": {"href": "/mdr/sdtmig/md-1-1/datasets/DT", "title": "Device Tracking and Disposition", "type": "SDTM Dataset"}, "parentProduct": {"href": "/mdr/sdtmig/md-1-1", "title": "Study Data Tabulation Model Implementation Guide for Medical Devices (SDTMIG-MD) Version 1.1", "type": "Implementation Guide"}, "priorVersion": {"href": "/mdr/sdtmig/md-1-0/datasets/DT/variables/DTPARTY", "title": "Party Responsible  for the Device", "type": "SDTM Dataset Variable"}, "rootItem": {"href": "/mdr/root/sdtmig/datasets/DT/variables/DTPARTY", "title": "Version-agnostic anchor resource for SDTMIG variable DT.DTPARTY", "type": "Root Data Element"}, "self": {"href": "/mdr/sdtmig/md-1-1/datasets/DT/variables/DTPARTY", "title": "Party Responsible for the Device", "type": "SDTM Dataset Variable"}}, "core": "Req", "description": "Person or organization accountable for the device at the conclusion of the action specified in DTTERM. Describes the person or organization that is accountable for the device defined in DTTERM. For example, if DTTERM=SHIPPED, DTPARTY would contain the transfer recipient (e.g., SITE). If DTTERM=IMPLANTED, DTPARTY would contain SUBJECT.", "label": "Party Responsible for the Device", "name": "DTPARTY", "ordinal": "10", "role": "Record Qualifier", "simpleDatatype": "Char"}, {"_links": {"modelClassVariable": {"href": "/mdr/sdtm/1-7/classes/Events/variables/--PRTYID", "title": "Identification of Accountable Party", "type": "Class Variable"}, "parentDataset": {"href": "/mdr/sdtmig/md-1-1/datasets/DT", "title": "Device Tracking and Disposition", "type": "SDTM Dataset"}, "parentProduct": {"href": "/mdr/sdtmig/md-1-1", "title": "Study Data Tabulation Model Implementation Guide for Medical Devices (SDTMIG-MD) Version 1.1", "type": "Implementation Guide"}, "priorVersion": {"href": "/mdr/sdtmig/md-1-0/datasets/DT/variables/DTPRTYID", "title": "Responsible Party Identifier", "type": "SDTM Dataset Variable"}, "rootItem": {"href": "/mdr/root/sdtmig/datasets/DT/variables/DTPRTYID", "title": "Version-agnostic anchor resource for SDTMIG variable DT.DTPRTYID", "type": "Root Data Element"}, "self": {"href": "/mdr/sdtmig/md-1-1/datasets/DT/variables/DTPRTYID", "title": "Responsible Party Identifier", "type": "SDTM Dataset Variable"}}, "core": "Exp", "description": "An identifier for the responsible group/role (e.g. site, subject). The value of the responsible party identified in DTPARTY. For example, if DTPARTY is SUBJECT, DTPRTYID would contain the subject number.", "label": "Responsible Party Identifier", "name": "DTPRTYID", "ordinal": "11", "role": "Variable Qualifier", "simpleDatatype": "Char"}, {"_links": {"modelClassVariable": {"href": "/mdr/sdtm/1-7/classes/GeneralObservations/variables/--DTC", "title": "Date/Time of Collection", "type": "Class Variable"}, "parentDataset": {"href": "/mdr/sdtmig/md-1-1/datasets/DT", "title": "Device Tracking and Disposition", "type": "SDTM Dataset"}, "parentProduct": {"href": "/mdr/sdtmig/md-1-1", "title": "Study Data Tabulation Model Implementation Guide for Medical Devices (SDTMIG-MD) Version 1.1", "type": "Implementation Guide"}, "priorVersion": {"href": "/mdr/sdtmig/md-1-0/datasets/DT/variables/DTDTC", "title": "Date/Time of Device Tracking Event Collection", "type": "SDTM Dataset Variable"}, "rootItem": {"href": "/mdr/root/sdtmig/datasets/DT/variables/DTDTC", "title": "Version-agnostic anchor resource for SDTMIG variable DT.DTDTC", "type": "Root Data Element"}, "self": {"href": "/mdr/sdtmig/md-1-1/datasets/DT/variables/DTDTC", "title": "Date/Time of Tracking Event Collection", "type": "SDTM Dataset Variable"}}, "core": "Perm", "describedValueDomain": "ISO 8601", "description": "Date/Time the tracking event information was collected. Will generally be the same as the date the tracking event started, but it can differ.", "label": "Date/Time of Tracking Event Collection", "name": "DTDTC", "ordinal": "12", "role": "Timing", "simpleDatatype": "Char"}, {"_links": {"modelClassVariable": {"href": "/mdr/sdtm/1-7/classes/GeneralObservations/variables/--STDTC", "title": "Start Date/Time of Observation", "type": "Class Variable"}, "parentDataset": {"href": "/mdr/sdtmig/md-1-1/datasets/DT", "title": "Device Tracking and Disposition", "type": "SDTM Dataset"}, "parentProduct": {"href": "/mdr/sdtmig/md-1-1", "title": "Study Data Tabulation Model Implementation Guide for Medical Devices (SDTMIG-MD) Version 1.1", "type": "Implementation Guide"}, "priorVersion": {"href": "/mdr/sdtmig/md-1-0/datasets/DT/variables/DTSTDTC", "title": "Start Date/Time of Device Tracking Event", "type": "SDTM Dataset Variable"}, "rootItem": {"href": "/mdr/root/sdtmig/datasets/DT/variables/DTSTDTC", "title": "Version-agnostic anchor resource for SDTMIG variable DT.DTSTDTC", "type": "Root Data Element"}, "self": {"href": "/mdr/sdtmig/md-1-1/datasets/DT/variables/DTSTDTC", "title": "Start Date/Time of Tracking Event", "type": "SDTM Dataset Variable"}}, "core": "Req", "describedValueDomain": "ISO 8601", "description": "Start date/time of tracking event. A tracking event (e.g., SHIPPED, RECEIVED) is usually a point in time, which is why only the start date/time is included. If an event occurs over a longer period, the stop date/time may be included from the SDTM model.", "label": "Start Date/Time of Tracking Event", "name": "DTSTDTC", "ordinal": "13", "role": "Timing", "simpleDatatype": "Char"}], "description": "A events domain that contains the logistics and disposition information specific to a given device. (Source: CDISC Controlled Terminology, DOMAIN, C102621, 2018-06-29)", "label": "Device Tracking and Disposition", "name": "DT", "ordinal": "5"}], "description": "This SDTM class captures planned protocol milestones such as randomization and study completion, and occurrences, conditions, or incidents independent of planned study evaluations occurring during the trial (e.g., adverse events) or prior to the trial (e.g., medical history). (Source: CDISC Controlled Terminology, GNRLOBSC, C103372, 2018-06-29)", "label": "Events Observation Class", "name": "Events", "ordinal": "3"}, {"_links": {"modelClass": {"href": "/mdr/sdtm/1-7/classes/Findings", "title": "Findings Observation Class", "type": "Class"}, "parentClass": {"href": "/mdr/sdtmig/md-1-1/classes/GeneralObservations", "title": "General Observation Class", "type": "Class"}, "parentProduct": {"href": "/mdr/sdtmig/md-1-1", "title": "Study Data Tabulation Model Implementation Guide for Medical Devices (SDTMIG-MD) Version 1.1", "type": "Implementation Guide"}, "priorVersion": {"href": "/mdr/sdtmig/md-1-0/classes/Findings", "title": "Findings Observation Class", "type": "Class"}, "self": {"href": "/mdr/sdtmig/md-1-1/classes/Findings", "title": "Findings Observation Class", "type": "Class"}}, "datasets": [{"_links": {"parentClass": {"href": "/mdr/sdtmig/md-1-1/classes/Findings", "title": "Findings Observation Class", "type": "Class"}, "parentProduct": {"href": "/mdr/sdtmig/md-1-1", "title": "Study Data Tabulation Model Implementation Guide for Medical Devices (SDTMIG-MD) Version 1.1", "type": "Implementation Guide"}, "priorVersion": {"href": "/mdr/sdtmig/md-1-0/datasets/DU", "title": "Device In-Use", "type": "SDTM Dataset"}, "self": {"href": "/mdr/sdtmig/md-1-1/datasets/DU", "title": "Device-In-Use", "type": "SDTM Dataset"}}, "datasetStructure": "One record per property or setting per time point per visit or test date per subject", "datasetVariables": [{"_links": {"modelClassVariable": {"href": "/mdr/sdtm/1-7/classes/GeneralObservations/variables/STUDYID", "title": "Study Identifier", "type": "Class Variable"}, "parentDataset": {"href": "/mdr/sdtmig/md-1-1/datasets/DU", "title": "Device-In-Use", "type": "SDTM Dataset"}, "parentProduct": {"href": "/mdr/sdtmig/md-1-1", "title": "Study Data Tabulation Model Implementation Guide for Medical Devices (SDTMIG-MD) Version 1.1", "type": "Implementation Guide"}, "priorVersion": {"href": "/mdr/sdtmig/md-1-0/datasets/DU/variables/STUDYID", "title": "Study Identifier", "type": "SDTM Dataset Variable"}, "rootItem": {"href": "/mdr/root/sdtmig/datasets/DU/variables/STUDYID", "title": "Version-agnostic anchor resource for SDTMIG variable DU.STUDYID", "type": "Root Data Element"}, "self": {"href": "/mdr/sdtmig/md-1-1/datasets/DU/variables/STUDYID", "title": "Study Identifier", "type": "SDTM Dataset Variable"}}, "core": "Req", "description": "Unique identifier for a study.", "label": "Study Identifier", "name": "STUDYID", "ordinal": "1", "role": "Identifier", "simpleDatatype": "Char"}, {"_links": {"modelClassVariable": {"href": "/mdr/sdtm/1-7/classes/GeneralObservations/variables/DOMAIN", "title": "Domain Abbreviation", "type": "Class Variable"}, "parentDataset": {"href": "/mdr/sdtmig/md-1-1/datasets/DU", "title": "Device-In-Use", "type": "SDTM Dataset"}, "parentProduct": {"href": "/mdr/sdtmig/md-1-1", "title": "Study Data Tabulation Model Implementation Guide for Medical Devices (SDTMIG-MD) Version 1.1", "type": "Implementation Guide"}, "priorVersion": {"href": "/mdr/sdtmig/md-1-0/datasets/DU/variables/DOMAIN", "title": "Domain Abbreviation", "type": "SDTM Dataset Variable"}, "rootItem": {"href": "/mdr/root/sdtmig/datasets/DU/variables/DOMAIN", "title": "Version-agnostic anchor resource for SDTMIG variable DU.DOMAIN", "type": "Root Data Element"}, "self": {"href": "/mdr/sdtmig/md-1-1/datasets/DU/variables/DOMAIN", "title": "Domain Abbreviation", "type": "SDTM Dataset Variable"}}, "core": "Req", "description": "Two-character abbreviation for the domain.", "label": "Domain Abbreviation", "name": "DOMAIN", "ordinal": "2", "role": "Identifier", "simpleDatatype": "Char", "valueList": ["DU"]}, {"_links": {"modelClassVariable": {"href": "/mdr/sdtm/1-7/classes/GeneralObservations/variables/USUBJID", "title": "Unique Subject Identifier", "type": "Class Variable"}, "parentDataset": {"href": "/mdr/sdtmig/md-1-1/datasets/DU", "title": "Device-In-Use", "type": "SDTM Dataset"}, "parentProduct": {"href": "/mdr/sdtmig/md-1-1", "title": "Study Data Tabulation Model Implementation Guide for Medical Devices (SDTMIG-MD) Version 1.1", "type": "Implementation Guide"}, "priorVersion": {"href": "/mdr/sdtmig/md-1-0/datasets/DU/variables/USUBJID", "title": "Unique Subject Identifier", "type": "SDTM Dataset Variable"}, "rootItem": {"href": "/mdr/root/sdtmig/datasets/DU/variables/USUBJID", "title": "Version-agnostic anchor resource for SDTMIG variable DU.USUBJID", "type": "Root Data Element"}, "self": {"href": "/mdr/sdtmig/md-1-1/datasets/DU/variables/USUBJID", "title": "Unique Subject Identifier", "type": "SDTM Dataset Variable"}}, "core": "Exp", "description": "Identifier used to uniquely identify a subject across all studies for all applications or submissions involving the product. Expected in this domain as devices may have settings or uses that either may not involve subjects (e.g., diagnostic tools) or devices that are removed from the study prior to contact with a subject (e.g., device has malfunction).", "label": "Unique Subject Identifier", "name": "USUBJID", "ordinal": "3", "role": "Identifier", "simpleDatatype": "Char"}, {"_links": {"modelClassVariable": {"href": "/mdr/sdtm/1-7/classes/GeneralObservations/variables/SPDEVID", "title": "Sponsor Device Identifier", "type": "Class Variable"}, "parentDataset": {"href": "/mdr/sdtmig/md-1-1/datasets/DU", "title": "Device-In-Use", "type": "SDTM Dataset"}, "parentProduct": {"href": "/mdr/sdtmig/md-1-1", "title": "Study Data Tabulation Model Implementation Guide for Medical Devices (SDTMIG-MD) Version 1.1", "type": "Implementation Guide"}, "priorVersion": {"href": "/mdr/sdtmig/md-1-0/datasets/DU/variables/SPDEVID", "title": "Sponsor Device Identifier", "type": "SDTM Dataset Variable"}, "rootItem": {"href": "/mdr/root/sdtmig/datasets/DU/variables/SPDEVID", "title": "Version-agnostic anchor resource for SDTMIG variable DU.SPDEVID", "type": "Root Data Element"}, "self": {"href": "/mdr/sdtmig/md-1-1/datasets/DU/variables/SPDEVID", "title": "Sponsor Device Identifier", "type": "SDTM Dataset Variable"}}, "core": "Exp", "description": "Sponsor-defined identifier for the device. It must be unique for each tracked unit of the device under study, and can be at whatever level of granularity the device should be identified (e.g., model or serial number, or combination of identifiers).", "label": "Sponsor Device Identifier", "name": "SPDEVID", "ordinal": "4", "role": "Identifier", "simpleDatatype": "Char"}, {"_links": {"modelClassVariable": {"href": "/mdr/sdtm/1-7/classes/GeneralObservations/variables/--SEQ", "title": "Sequence Number", "type": "Class Variable"}, "parentDataset": {"href": "/mdr/sdtmig/md-1-1/datasets/DU", "title": "Device-In-Use", "type": "SDTM Dataset"}, "parentProduct": {"href": "/mdr/sdtmig/md-1-1", "title": "Study Data Tabulation Model Implementation Guide for Medical Devices (SDTMIG-MD) Version 1.1", "type": "Implementation Guide"}, "priorVersion": {"href": "/mdr/sdtmig/md-1-0/datasets/DU/variables/DUSEQ", "title": "Sequence Number", "type": "SDTM Dataset Variable"}, "rootItem": {"href": "/mdr/root/sdtmig/datasets/DU/variables/DUSEQ", "title": "Version-agnostic anchor resource for SDTMIG variable DU.DUSEQ", "type": "Root Data Element"}, "self": {"href": "/mdr/sdtmig/md-1-1/datasets/DU/variables/DUSEQ", "title": "Sequence Number", "type": "SDTM Dataset Variable"}}, "core": "Req", "description": "Sequence Number given to ensure uniqueness of device records within subject records within a domain. May be any valid number. It should be unique within every subject/device combination.", "label": "Sequence Number", "name": "DUSEQ", "ordinal": "5", "role": "Identifier", "simpleDatatype": "Num"}, {"_links": {"modelClassVariable": {"href": "/mdr/sdtm/1-7/classes/GeneralObservations/variables/--GRPID", "title": "Group ID", "type": "Class Variable"}, "parentDataset": {"href": "/mdr/sdtmig/md-1-1/datasets/DU", "title": "Device-In-Use", "type": "SDTM Dataset"}, "parentProduct": {"href": "/mdr/sdtmig/md-1-1", "title": "Study Data Tabulation Model Implementation Guide for Medical Devices (SDTMIG-MD) Version 1.1", "type": "Implementation Guide"}, "priorVersion": {"href": "/mdr/sdtmig/md-1-0/datasets/DU/variables/DUGRPID", "title": "Group ID", "type": "SDTM Dataset Variable"}, "rootItem": {"href": "/mdr/root/sdtmig/datasets/DU/variables/DUGRPID", "title": "Version-agnostic anchor resource for SDTMIG variable DU.DUGRPID", "type": "Root Data Element"}, "self": {"href": "/mdr/sdtmig/md-1-1/datasets/DU/variables/DUGRPID", "title": "Group ID", "type": "SDTM Dataset Variable"}}, "core": "Perm", "description": "Identifier for a group or block of related records. Used to tie together a block of related records in a single domain for a subject or a group of subject related records (e.g., group records specifying all the settings for a specific imaging scan, such as field strength, repetition time and echo time).", "label": "Group ID", "name": "DUGRPID", "ordinal": "6", "role": "Identifier", "simpleDatatype": "Char"}, {"_links": {"modelClassVariable": {"href": "/mdr/sdtm/1-7/classes/GeneralObservations/variables/--REFID", "title": "Reference ID", "type": "Class Variable"}, "parentDataset": {"href": "/mdr/sdtmig/md-1-1/datasets/DU", "title": "Device-In-Use", "type": "SDTM Dataset"}, "parentProduct": {"href": "/mdr/sdtmig/md-1-1", "title": "Study Data Tabulation Model Implementation Guide for Medical Devices (SDTMIG-MD) Version 1.1", "type": "Implementation Guide"}, "priorVersion": {"href": "/mdr/sdtmig/md-1-0/datasets/DU/variables/DUREFID", "title": "Reference ID", "type": "SDTM Dataset Variable"}, "rootItem": {"href": "/mdr/root/sdtmig/datasets/DU/variables/DUREFID", "title": "Version-agnostic anchor resource for SDTMIG variable DU.DUREFID", "type": "Root Data Element"}, "self": {"href": "/mdr/sdtmig/md-1-1/datasets/DU/variables/DUREFID", "title": "Reference ID", "type": "SDTM Dataset Variable"}}, "core": "Perm", "description": "Internal or external identifier. This could be a scan code or equivalent.", "label": "Reference ID", "name": "DUREFID", "ordinal": "7", "role": "Identifier", "simpleDatatype": "Char"}, {"_links": {"modelClassVariable": {"href": "/mdr/sdtm/1-7/classes/GeneralObservations/variables/--SPID", "title": "Sponsor-Defined Identifier", "type": "Class Variable"}, "parentDataset": {"href": "/mdr/sdtmig/md-1-1/datasets/DU", "title": "Device-In-Use", "type": "SDTM Dataset"}, "parentProduct": {"href": "/mdr/sdtmig/md-1-1", "title": "Study Data Tabulation Model Implementation Guide for Medical Devices (SDTMIG-MD) Version 1.1", "type": "Implementation Guide"}, "priorVersion": {"href": "/mdr/sdtmig/md-1-0/datasets/DU/variables/DUSPID", "title": "Sponsor-Defined Identifier", "type": "SDTM Dataset Variable"}, "rootItem": {"href": "/mdr/root/sdtmig/datasets/DU/variables/DUSPID", "title": "Version-agnostic anchor resource for SDTMIG variable DU.DUSPID", "type": "Root Data Element"}, "self": {"href": "/mdr/sdtmig/md-1-1/datasets/DU/variables/DUSPID", "title": "Sponsor-Defined Identifier", "type": "SDTM Dataset Variable"}}, "core": "Perm", "description": "Sponsor-defined reference number. Perhaps pre-printed on the CRF as an explicit line identifier or defined in the sponsor's operational database.", "label": "Sponsor-Defined Identifier", "name": "DUSPID", "ordinal": "8", "role": "Identifier", "simpleDatatype": "Char"}, {"_links": {"codelist": [{"href": "/mdr/root/ct/sdtmct/codelists/C106483", "title": "Version-agnostic anchor resource for codelist C106483", "type": "Root Value Domain"}], "modelClassVariable": {"href": "/mdr/sdtm/1-7/classes/Findings/variables/--TESTCD", "title": "Short Name of Measurement, Test, or Exam", "type": "Class Variable"}, "parentDataset": {"href": "/mdr/sdtmig/md-1-1/datasets/DU", "title": "Device-In-Use", "type": "SDTM Dataset"}, "parentProduct": {"href": "/mdr/sdtmig/md-1-1", "title": "Study Data Tabulation Model Implementation Guide for Medical Devices (SDTMIG-MD) Version 1.1", "type": "Implementation Guide"}, "priorVersion": {"href": "/mdr/sdtmig/md-1-0/datasets/DU/variables/DUTESTCD", "title": "Device In-Use Test Short Name", "type": "SDTM Dataset Variable"}, "rootItem": {"href": "/mdr/root/sdtmig/datasets/DU/variables/DUTESTCD", "title": "Version-agnostic anchor resource for SDTMIG variable DU.DUTESTCD", "type": "Root Data Element"}, "self": {"href": "/mdr/sdtmig/md-1-1/datasets/DU/variables/DUTESTCD", "title": "Device-In-Use Test Short Name", "type": "SDTM Dataset Variable"}}, "core": "Req", "description": "Short name of the measurement, test, or examination described in DUTEST. It can be used as a column name when converting a dataset from a vertical to a horizontal format. The value in DUTESTCD cannot be longer than 8 characters, nor can it start with a number (e.g., \"1TEST\"). DUTESTCD cannot contain characters other than letters, numbers, or underscores. Examples: \"COILSTR\", \"CNTMEDIA\".", "label": "Device-In-Use Test Short Name", "name": "DUTESTCD", "ordinal": "9", "role": "Topic", "simpleDatatype": "Char"}, {"_links": {"codelist": [{"href": "/mdr/root/ct/sdtmct/codelists/C106482", "title": "Version-agnostic anchor resource for codelist C106482", "type": "Root Value Domain"}], "modelClassVariable": {"href": "/mdr/sdtm/1-7/classes/Findings/variables/--TEST", "title": "Name of Measurement, Test, or Exam", "type": "Class Variable"}, "parentDataset": {"href": "/mdr/sdtmig/md-1-1/datasets/DU", "title": "Device-In-Use", "type": "SDTM Dataset"}, "parentProduct": {"href": "/mdr/sdtmig/md-1-1", "title": "Study Data Tabulation Model Implementation Guide for Medical Devices (SDTMIG-MD) Version 1.1", "type": "Implementation Guide"}, "priorVersion": {"href": "/mdr/sdtmig/md-1-0/datasets/DU/variables/DUTEST", "title": "Device In-Use Test Name", "type": "SDTM Dataset Variable"}, "rootItem": {"href": "/mdr/root/sdtmig/datasets/DU/variables/DUTEST", "title": "Version-agnostic anchor resource for SDTMIG variable DU.DUTEST", "type": "Root Data Element"}, "self": {"href": "/mdr/sdtmig/md-1-1/datasets/DU/variables/DUTEST", "title": "Device-In-Use Test Name", "type": "SDTM Dataset Variable"}}, "core": "Req", "description": "Verbatim name of the test or examination used to obtain the measurement or finding. The value in DUTEST cannot be longer than 40 characters. Examples: \"Coil Strength\", \"Contrast Media\".", "label": "Device-In-Use Test Name", "name": "DUTEST", "ordinal": "10", "role": "Synonym Qualifier", "simpleDatatype": "Char"}, {"_links": {"modelClassVariable": {"href": "/mdr/sdtm/1-7/classes/Findings/variables/--CAT", "title": "Category", "type": "Class Variable"}, "parentDataset": {"href": "/mdr/sdtmig/md-1-1/datasets/DU", "title": "Device-In-Use", "type": "SDTM Dataset"}, "parentProduct": {"href": "/mdr/sdtmig/md-1-1", "title": "Study Data Tabulation Model Implementation Guide for Medical Devices (SDTMIG-MD) Version 1.1", "type": "Implementation Guide"}, "priorVersion": {"href": "/mdr/sdtmig/md-1-0/datasets/DU/variables/DUCAT", "title": "Category for Device In-Use", "type": "SDTM Dataset Variable"}, "rootItem": {"href": "/mdr/root/sdtmig/datasets/DU/variables/DUCAT", "title": "Version-agnostic anchor resource for SDTMIG variable DU.DUCAT", "type": "Root Data Element"}, "self": {"href": "/mdr/sdtmig/md-1-1/datasets/DU/variables/DUCAT", "title": "Category for Device-In-Use", "type": "SDTM Dataset Variable"}}, "core": "Perm", "description": "Defines a category of related records. It can be used to define the type of device for which settings are recorded if DI is not used (e.g., if the device is not under study); may also be used to record the type of setting (e.g., \"HARDWARE\" vs. \"SOFTWARE\").", "label": "Category for Device-In-Use", "name": "DUCAT", "ordinal": "11", "role": "Grouping Qualifier", "simpleDatatype": "Char"}, {"_links": {"modelClassVariable": {"href": "/mdr/sdtm/1-7/classes/Findings/variables/--SCAT", "title": "Subcategory", "type": "Class Variable"}, "parentDataset": {"href": "/mdr/sdtmig/md-1-1/datasets/DU", "title": "Device-In-Use", "type": "SDTM Dataset"}, "parentProduct": {"href": "/mdr/sdtmig/md-1-1", "title": "Study Data Tabulation Model Implementation Guide for Medical Devices (SDTMIG-MD) Version 1.1", "type": "Implementation Guide"}, "priorVersion": {"href": "/mdr/sdtmig/md-1-0/datasets/DU/variables/DUSCAT", "title": "Subcategory for Device In-Use", "type": "SDTM Dataset Variable"}, "rootItem": {"href": "/mdr/root/sdtmig/datasets/DU/variables/DUSCAT", "title": "Version-agnostic anchor resource for SDTMIG variable DU.DUSCAT", "type": "Root Data Element"}, "self": {"href": "/mdr/sdtmig/md-1-1/datasets/DU/variables/DUSCAT", "title": "Subcategory for Device-In-Use", "type": "SDTM Dataset Variable"}}, "core": "Perm", "description": "A further categorization of a measurement or examination. For example, if DUCAT = \"SOFTWARE\", DUSCAT might be \"NOMINAL\" or \"POST-ADJUSTMENT\".", "label": "Subcategory for Device-In-Use", "name": "DUSCAT", "ordinal": "12", "role": "Grouping Qualifier", "simpleDatatype": "Char"}, {"_links": {"modelClassVariable": {"href": "/mdr/sdtm/1-7/classes/Findings/variables/--ORRES", "title": "Result or Finding in Original Units", "type": "Class Variable"}, "parentDataset": {"href": "/mdr/sdtmig/md-1-1/datasets/DU", "title": "Device-In-Use", "type": "SDTM Dataset"}, "parentProduct": {"href": "/mdr/sdtmig/md-1-1", "title": "Study Data Tabulation Model Implementation Guide for Medical Devices (SDTMIG-MD) Version 1.1", "type": "Implementation Guide"}, "priorVersion": {"href": "/mdr/sdtmig/md-1-0/datasets/DU/variables/DUORRES", "title": "Result or Finding in Original Units", "type": "SDTM Dataset Variable"}, "rootItem": {"href": "/mdr/root/sdtmig/datasets/DU/variables/DUORRES", "title": "Version-agnostic anchor resource for SDTMIG variable DU.DUORRES", "type": "Root Data Element"}, "self": {"href": "/mdr/sdtmig/md-1-1/datasets/DU/variables/DUORRES", "title": "Result or Finding in Original Units", "type": "SDTM Dataset Variable"}}, "core": "Exp", "description": "Result of the measurement as originally received or collected. DUORRES should contain the setting or other device condition in effect at the time the device was used.", "label": "Result or Finding in Original Units", "name": "DUORRES", "ordinal": "13", "role": "Result Qualifier", "simpleDatatype": "Char"}, {"_links": {"codelist": [{"href": "/mdr/root/ct/sdtmct/codelists/C71620", "title": "Version-agnostic anchor resource for codelist C71620", "type": "Root Value Domain"}], "modelClassVariable": {"href": "/mdr/sdtm/1-7/classes/Findings/variables/--ORRESU", "title": "Original Units", "type": "Class Variable"}, "parentDataset": {"href": "/mdr/sdtmig/md-1-1/datasets/DU", "title": "Device-In-Use", "type": "SDTM Dataset"}, "parentProduct": {"href": "/mdr/sdtmig/md-1-1", "title": "Study Data Tabulation Model Implementation Guide for Medical Devices (SDTMIG-MD) Version 1.1", "type": "Implementation Guide"}, "priorVersion": {"href": "/mdr/sdtmig/md-1-0/datasets/DU/variables/DUORRESU", "title": "Original Units", "type": "SDTM Dataset Variable"}, "rootItem": {"href": "/mdr/root/sdtmig/datasets/DU/variables/DUORRESU", "title": "Version-agnostic anchor resource for SDTMIG variable DU.DUORRESU", "type": "Root Data Element"}, "self": {"href": "/mdr/sdtmig/md-1-1/datasets/DU/variables/DUORRESU", "title": "Original Units", "type": "SDTM Dataset Variable"}}, "core": "Exp", "description": "Original units in which the data were collected. The unit for DUORRES. Examples: Tesla, mm.", "label": "Original Units", "name": "DUORRESU", "ordinal": "14", "role": "Variable Qualifier", "simpleDatatype": "Char"}, {"_links": {"modelClassVariable": {"href": "/mdr/sdtm/1-7/classes/Findings/variables/--STRESC", "title": "Result or Finding in Standard Format", "type": "Class Variable"}, "parentDataset": {"href": "/mdr/sdtmig/md-1-1/datasets/DU", "title": "Device-In-Use", "type": "SDTM Dataset"}, "parentProduct": {"href": "/mdr/sdtmig/md-1-1", "title": "Study Data Tabulation Model Implementation Guide for Medical Devices (SDTMIG-MD) Version 1.1", "type": "Implementation Guide"}, "priorVersion": {"href": "/mdr/sdtmig/md-1-0/datasets/DU/variables/DUSTRESC", "title": "Character Result/Finding in Std Format", "type": "SDTM Dataset Variable"}, "rootItem": {"href": "/mdr/root/sdtmig/datasets/DU/variables/DUSTRESC", "title": "Version-agnostic anchor resource for SDTMIG variable DU.DUSTRESC", "type": "Root Data Element"}, "self": {"href": "/mdr/sdtmig/md-1-1/datasets/DU/variables/DUSTRESC", "title": "Result or Finding in Standard Format", "type": "SDTM Dataset Variable"}}, "core": "Exp", "description": "Contains the result value for all findings, copied or derived from DUORRES in a standard format or standard units. DUSTRESC should store all results or findings in character format; if results are numeric, they should also be stored in numeric format in DUSTRESN. For example, if a test has results \"NONE,\" \"NEG,\" and \"NEGATIVE\" in DUORRES, and these results effectively have the same meaning, they could be represented in standard format in DUSTRESC as \"NEGATIVE\".", "label": "Result or Finding in Standard Format", "name": "DUSTRESC", "ordinal": "15", "role": "Result Qualifier", "simpleDatatype": "Char"}, {"_links": {"modelClassVariable": {"href": "/mdr/sdtm/1-7/classes/Findings/variables/--STRESN", "title": "Numeric Result/Finding in Standard Units", "type": "Class Variable"}, "parentDataset": {"href": "/mdr/sdtmig/md-1-1/datasets/DU", "title": "Device-In-Use", "type": "SDTM Dataset"}, "parentProduct": {"href": "/mdr/sdtmig/md-1-1", "title": "Study Data Tabulation Model Implementation Guide for Medical Devices (SDTMIG-MD) Version 1.1", "type": "Implementation Guide"}, "priorVersion": {"href": "/mdr/sdtmig/md-1-0/datasets/DU/variables/DUSTRESN", "title": "Numeric Result/Finding in Standard Units", "type": "SDTM Dataset Variable"}, "rootItem": {"href": "/mdr/root/sdtmig/datasets/DU/variables/DUSTRESN", "title": "Version-agnostic anchor resource for SDTMIG variable DU.DUSTRESN", "type": "Root Data Element"}, "self": {"href": "/mdr/sdtmig/md-1-1/datasets/DU/variables/DUSTRESN", "title": "Numeric Result/Finding in Standard Units", "type": "SDTM Dataset Variable"}}, "core": "Exp", "description": "Used for continuous or numeric results or findings in standard format. Copied in numeric format from DUSTRESC. DUSTRESN should store all numeric test results or findings.", "label": "Numeric Result/Finding in Standard Units", "name": "DUSTRESN", "ordinal": "16", "role": "Result Qualifier", "simpleDatatype": "Num"}, {"_links": {"codelist": [{"href": "/mdr/root/ct/sdtmct/codelists/C71620", "title": "Version-agnostic anchor resource for codelist C71620", "type": "Root Value Domain"}], "modelClassVariable": {"href": "/mdr/sdtm/1-7/classes/Findings/variables/--STRESU", "title": "Standard Units", "type": "Class Variable"}, "parentDataset": {"href": "/mdr/sdtmig/md-1-1/datasets/DU", "title": "Device-In-Use", "type": "SDTM Dataset"}, "parentProduct": {"href": "/mdr/sdtmig/md-1-1", "title": "Study Data Tabulation Model Implementation Guide for Medical Devices (SDTMIG-MD) Version 1.1", "type": "Implementation Guide"}, "priorVersion": {"href": "/mdr/sdtmig/md-1-0/datasets/DU/variables/DUSTRESU", "title": "Standard Units", "type": "SDTM Dataset Variable"}, "rootItem": {"href": "/mdr/root/sdtmig/datasets/DU/variables/DUSTRESU", "title": "Version-agnostic anchor resource for SDTMIG variable DU.DUSTRESU", "type": "Root Data Element"}, "self": {"href": "/mdr/sdtmig/md-1-1/datasets/DU/variables/DUSTRESU", "title": "Standard Units", "type": "SDTM Dataset Variable"}}, "core": "Exp", "description": "Standardized unit used for DUSTRESC and DUSTRESN. The unit for standardized results may or may not be the same as for the original results.", "label": "Standard Units", "name": "DUSTRESU", "ordinal": "17", "role": "Variable Qualifier", "simpleDatatype": "Char"}, {"_links": {"modelClassVariable": {"href": "/mdr/sdtm/1-7/classes/GeneralObservations/variables/VISITNUM", "title": "Visit Number", "type": "Class Variable"}, "parentDataset": {"href": "/mdr/sdtmig/md-1-1/datasets/DU", "title": "Device-In-Use", "type": "SDTM Dataset"}, "parentProduct": {"href": "/mdr/sdtmig/md-1-1", "title": "Study Data Tabulation Model Implementation Guide for Medical Devices (SDTMIG-MD) Version 1.1", "type": "Implementation Guide"}, "priorVersion": {"href": "/mdr/sdtmig/md-1-0/datasets/DU/variables/VISITNUM", "title": "Visit Number", "type": "SDTM Dataset Variable"}, "rootItem": {"href": "/mdr/root/sdtmig/datasets/DU/variables/VISITNUM", "title": "Version-agnostic anchor resource for SDTMIG variable DU.VISITNUM", "type": "Root Data Element"}, "self": {"href": "/mdr/sdtmig/md-1-1/datasets/DU/variables/VISITNUM", "title": "Visit Number", "type": "SDTM Dataset Variable"}}, "core": "Exp", "description": "A clinical encounter number. A Numeric version of VISIT, used for sorting.", "label": "Visit Number", "name": "VISITNUM", "ordinal": "18", "role": "Timing", "simpleDatatype": "Num"}, {"_links": {"modelClassVariable": {"href": "/mdr/sdtm/1-7/classes/GeneralObservations/variables/VISIT", "title": "Visit Name", "type": "Class Variable"}, "parentDataset": {"href": "/mdr/sdtmig/md-1-1/datasets/DU", "title": "Device-In-Use", "type": "SDTM Dataset"}, "parentProduct": {"href": "/mdr/sdtmig/md-1-1", "title": "Study Data Tabulation Model Implementation Guide for Medical Devices (SDTMIG-MD) Version 1.1", "type": "Implementation Guide"}, "priorVersion": {"href": "/mdr/sdtmig/md-1-0/datasets/DU/variables/VISIT", "title": "Visit Name", "type": "SDTM Dataset Variable"}, "rootItem": {"href": "/mdr/root/sdtmig/datasets/DU/variables/VISIT", "title": "Version-agnostic anchor resource for SDTMIG variable DU.VISIT", "type": "Root Data Element"}, "self": {"href": "/mdr/sdtmig/md-1-1/datasets/DU/variables/VISIT", "title": "Visit Name", "type": "SDTM Dataset Variable"}}, "core": "Perm", "description": "Protocol-defined description of clinical encounter. May be used in addition to VISITNUM and/or VISITDY.", "label": "Visit Name", "name": "VISIT", "ordinal": "19", "role": "Timing", "simpleDatatype": "Char"}, {"_links": {"modelClassVariable": {"href": "/mdr/sdtm/1-7/classes/GeneralObservations/variables/VISITDY", "title": "Planned Study Day of Visit", "type": "Class Variable"}, "parentDataset": {"href": "/mdr/sdtmig/md-1-1/datasets/DU", "title": "Device-In-Use", "type": "SDTM Dataset"}, "parentProduct": {"href": "/mdr/sdtmig/md-1-1", "title": "Study Data Tabulation Model Implementation Guide for Medical Devices (SDTMIG-MD) Version 1.1", "type": "Implementation Guide"}, "priorVersion": {"href": "/mdr/sdtmig/md-1-0/datasets/DU/variables/VISITDY", "title": "Planned Study Day of Visit", "type": "SDTM Dataset Variable"}, "rootItem": {"href": "/mdr/root/sdtmig/datasets/DU/variables/VISITDY", "title": "Version-agnostic anchor resource for SDTMIG variable DU.VISITDY", "type": "Root Data Element"}, "self": {"href": "/mdr/sdtmig/md-1-1/datasets/DU/variables/VISITDY", "title": "Planned Study Day of Visit", "type": "SDTM Dataset Variable"}}, "core": "Perm", "description": "Planned study day of the visit based upon RFSTDTC in Demographics. This value is usually derived.", "label": "Planned Study Day of Visit", "name": "VISITDY", "ordinal": "20", "role": "Timing", "simpleDatatype": "Num"}, {"_links": {"modelClassVariable": {"href": "/mdr/sdtm/1-7/classes/GeneralObservations/variables/--DTC", "title": "Date/Time of Collection", "type": "Class Variable"}, "parentDataset": {"href": "/mdr/sdtmig/md-1-1/datasets/DU", "title": "Device-In-Use", "type": "SDTM Dataset"}, "parentProduct": {"href": "/mdr/sdtmig/md-1-1", "title": "Study Data Tabulation Model Implementation Guide for Medical Devices (SDTMIG-MD) Version 1.1", "type": "Implementation Guide"}, "priorVersion": {"href": "/mdr/sdtmig/md-1-0/datasets/DU/variables/DUDTC", "title": "Date/Time Device Used With Test/ Setting", "type": "SDTM Dataset Variable"}, "rootItem": {"href": "/mdr/root/sdtmig/datasets/DU/variables/DUDTC", "title": "Version-agnostic anchor resource for SDTMIG variable DU.DUDTC", "type": "Root Data Element"}, "self": {"href": "/mdr/sdtmig/md-1-1/datasets/DU/variables/DUDTC", "title": "Date/Time Device Used with Test/ Setting", "type": "SDTM Dataset Variable"}}, "core": "Exp", "describedValueDomain": "ISO 8601", "description": "Date/time that the device was used with this setting. This is not the date/time that the setting was set on the device, but rather that date/time that a measurement or test was done using that setting.", "label": "Date/Time Device Used with Test/ Setting", "name": "DUDTC", "ordinal": "21", "role": "Timing", "simpleDatatype": "Char"}, {"_links": {"modelClassVariable": {"href": "/mdr/sdtm/1-7/classes/GeneralObservations/variables/--DY", "title": "Study Day of Visit/Collection/Exam", "type": "Class Variable"}, "parentDataset": {"href": "/mdr/sdtmig/md-1-1/datasets/DU", "title": "Device-In-Use", "type": "SDTM Dataset"}, "parentProduct": {"href": "/mdr/sdtmig/md-1-1", "title": "Study Data Tabulation Model Implementation Guide for Medical Devices (SDTMIG-MD) Version 1.1", "type": "Implementation Guide"}, "priorVersion": {"href": "/mdr/sdtmig/md-1-0/datasets/DU/variables/DUDY", "title": "Study Day of Observation", "type": "SDTM Dataset Variable"}, "rootItem": {"href": "/mdr/root/sdtmig/datasets/DU/variables/DUDY", "title": "Version-agnostic anchor resource for SDTMIG variable DU.DUDY", "type": "Root Data Element"}, "self": {"href": "/mdr/sdtmig/md-1-1/datasets/DU/variables/DUDY", "title": "Study Day of Observation", "type": "SDTM Dataset Variable"}}, "core": "Perm", "description": "Study day of Device-In-Use measurement, measured as integer days. Algorithm for calculations must be relative to the sponsor-defined RFSTDTC variable in Demographics.", "label": "Study Day of Observation", "name": "DUDY", "ordinal": "22", "role": "Timing", "simpleDatatype": "Num"}], "description": "A findings domain that contains the measurements and settings that are intentionally set on a device when it is in use. These are characteristics that exist for the device, and have a specific setting for a use instance. (Source: CDISC Controlled Terminology, DOMAIN, C102622, 2018-06-29)", "label": "Device-In-Use", "name": "DU", "ordinal": "2"}, {"_links": {"parentClass": {"href": "/mdr/sdtmig/md-1-1/classes/Findings", "title": "Findings Observation Class", "type": "Class"}, "parentProduct": {"href": "/mdr/sdtmig/md-1-1", "title": "Study Data Tabulation Model Implementation Guide for Medical Devices (SDTMIG-MD) Version 1.1", "type": "Implementation Guide"}, "priorVersion": {"href": "/mdr/sdtmig/md-1-0/datasets/DO", "title": "Device Properties", "type": "SDTM Dataset"}, "self": {"href": "/mdr/sdtmig/md-1-1/datasets/DO", "title": "Device Properties", "type": "SDTM Dataset"}}, "datasetStructure": "One record per property per device", "datasetVariables": [{"_links": {"modelClassVariable": {"href": "/mdr/sdtm/1-7/classes/GeneralObservations/variables/STUDYID", "title": "Study Identifier", "type": "Class Variable"}, "parentDataset": {"href": "/mdr/sdtmig/md-1-1/datasets/DO", "title": "Device Properties", "type": "SDTM Dataset"}, "parentProduct": {"href": "/mdr/sdtmig/md-1-1", "title": "Study Data Tabulation Model Implementation Guide for Medical Devices (SDTMIG-MD) Version 1.1", "type": "Implementation Guide"}, "priorVersion": {"href": "/mdr/sdtmig/md-1-0/datasets/DO/variables/STUDYID", "title": "Study Identifier", "type": "SDTM Dataset Variable"}, "rootItem": {"href": "/mdr/root/sdtmig/datasets/DO/variables/STUDYID", "title": "Version-agnostic anchor resource for SDTMIG variable DO.STUDYID", "type": "Root Data Element"}, "self": {"href": "/mdr/sdtmig/md-1-1/datasets/DO/variables/STUDYID", "title": "Study Identifier", "type": "SDTM Dataset Variable"}}, "core": "Req", "description": "Unique identifier for a study.", "label": "Study Identifier", "name": "STUDYID", "ordinal": "1", "role": "Identifier", "simpleDatatype": "Char"}, {"_links": {"modelClassVariable": {"href": "/mdr/sdtm/1-7/classes/GeneralObservations/variables/DOMAIN", "title": "Domain Abbreviation", "type": "Class Variable"}, "parentDataset": {"href": "/mdr/sdtmig/md-1-1/datasets/DO", "title": "Device Properties", "type": "SDTM Dataset"}, "parentProduct": {"href": "/mdr/sdtmig/md-1-1", "title": "Study Data Tabulation Model Implementation Guide for Medical Devices (SDTMIG-MD) Version 1.1", "type": "Implementation Guide"}, "priorVersion": {"href": "/mdr/sdtmig/md-1-0/datasets/DO/variables/DOMAIN", "title": "Domain Abbreviation", "type": "SDTM Dataset Variable"}, "rootItem": {"href": "/mdr/root/sdtmig/datasets/DO/variables/DOMAIN", "title": "Version-agnostic anchor resource for SDTMIG variable DO.DOMAIN", "type": "Root Data Element"}, "self": {"href": "/mdr/sdtmig/md-1-1/datasets/DO/variables/DOMAIN", "title": "Domain Abbreviation", "type": "SDTM Dataset Variable"}}, "core": "Req", "description": "Two-character abbreviation for the domain.", "label": "Domain Abbreviation", "name": "DOMAIN", "ordinal": "2", "role": "Identifier", "simpleDatatype": "Char", "valueList": ["DO"]}, {"_links": {"modelClassVariable": {"href": "/mdr/sdtm/1-7/classes/GeneralObservations/variables/SPDEVID", "title": "Sponsor Device Identifier", "type": "Class Variable"}, "parentDataset": {"href": "/mdr/sdtmig/md-1-1/datasets/DO", "title": "Device Properties", "type": "SDTM Dataset"}, "parentProduct": {"href": "/mdr/sdtmig/md-1-1", "title": "Study Data Tabulation Model Implementation Guide for Medical Devices (SDTMIG-MD) Version 1.1", "type": "Implementation Guide"}, "priorVersion": {"href": "/mdr/sdtmig/md-1-0/datasets/DO/variables/SPDEVID", "title": "Sponsor Device Identifier", "type": "SDTM Dataset Variable"}, "rootItem": {"href": "/mdr/root/sdtmig/datasets/DO/variables/SPDEVID", "title": "Version-agnostic anchor resource for SDTMIG variable DO.SPDEVID", "type": "Root Data Element"}, "self": {"href": "/mdr/sdtmig/md-1-1/datasets/DO/variables/SPDEVID", "title": "Sponsor Device Identifier", "type": "SDTM Dataset Variable"}}, "core": "Req", "description": "Sponsor-defined identifier for the device. It must be unique for each tracked unit of the device under study, and can be at whatever level of granularity the device should be identified (e.g., model or serial number, combination of identifiers).", "label": "Sponsor Device Identifier", "name": "SPDEVID", "ordinal": "3", "role": "Identifier", "simpleDatatype": "Char"}, {"_links": {"modelClassVariable": {"href": "/mdr/sdtm/1-7/classes/GeneralObservations/variables/--SEQ", "title": "Sequence Number", "type": "Class Variable"}, "parentDataset": {"href": "/mdr/sdtmig/md-1-1/datasets/DO", "title": "Device Properties", "type": "SDTM Dataset"}, "parentProduct": {"href": "/mdr/sdtmig/md-1-1", "title": "Study Data Tabulation Model Implementation Guide for Medical Devices (SDTMIG-MD) Version 1.1", "type": "Implementation Guide"}, "priorVersion": {"href": "/mdr/sdtmig/md-1-0/datasets/DO/variables/DOSEQ", "title": "Sequence Number", "type": "SDTM Dataset Variable"}, "rootItem": {"href": "/mdr/root/sdtmig/datasets/DO/variables/DOSEQ", "title": "Version-agnostic anchor resource for SDTMIG variable DO.DOSEQ", "type": "Root Data Element"}, "self": {"href": "/mdr/sdtmig/md-1-1/datasets/DO/variables/DOSEQ", "title": "Sequence Number", "type": "SDTM Dataset Variable"}}, "core": "Req", "description": "Sequence Number given to ensure uniqueness of device records within subject records within a domain. May be any valid number. It should be unique within every subject/device combination.", "label": "Sequence Number", "name": "DOSEQ", "ordinal": "4", "role": "Identifier", "simpleDatatype": "Num"}, {"_links": {"modelClassVariable": {"href": "/mdr/sdtm/1-7/classes/GeneralObservations/variables/--GRPID", "title": "Group ID", "type": "Class Variable"}, "parentDataset": {"href": "/mdr/sdtmig/md-1-1/datasets/DO", "title": "Device Properties", "type": "SDTM Dataset"}, "parentProduct": {"href": "/mdr/sdtmig/md-1-1", "title": "Study Data Tabulation Model Implementation Guide for Medical Devices (SDTMIG-MD) Version 1.1", "type": "Implementation Guide"}, "priorVersion": {"href": "/mdr/sdtmig/md-1-0/datasets/DO/variables/DOGRPID", "title": "Group ID", "type": "SDTM Dataset Variable"}, "rootItem": {"href": "/mdr/root/sdtmig/datasets/DO/variables/DOGRPID", "title": "Version-agnostic anchor resource for SDTMIG variable DO.DOGRPID", "type": "Root Data Element"}, "self": {"href": "/mdr/sdtmig/md-1-1/datasets/DO/variables/DOGRPID", "title": "Group ID", "type": "SDTM Dataset Variable"}}, "core": "Perm", "description": "Used to tie together a block of related records in a single domain for a device.", "label": "Group ID", "name": "DOGRPID", "ordinal": "5", "role": "Identifier", "simpleDatatype": "Char"}, {"_links": {"modelClassVariable": {"href": "/mdr/sdtm/1-7/classes/GeneralObservations/variables/--REFID", "title": "Reference ID", "type": "Class Variable"}, "parentDataset": {"href": "/mdr/sdtmig/md-1-1/datasets/DO", "title": "Device Properties", "type": "SDTM Dataset"}, "parentProduct": {"href": "/mdr/sdtmig/md-1-1", "title": "Study Data Tabulation Model Implementation Guide for Medical Devices (SDTMIG-MD) Version 1.1", "type": "Implementation Guide"}, "priorVersion": {"href": "/mdr/sdtmig/md-1-0/datasets/DO/variables/DOREFID", "title": "Reference ID", "type": "SDTM Dataset Variable"}, "rootItem": {"href": "/mdr/root/sdtmig/datasets/DO/variables/DOREFID", "title": "Version-agnostic anchor resource for SDTMIG variable DO.DOREFID", "type": "Root Data Element"}, "self": {"href": "/mdr/sdtmig/md-1-1/datasets/DO/variables/DOREFID", "title": "Reference ID", "type": "SDTM Dataset Variable"}}, "core": "Perm", "description": "Internal or external identifier. This could be a scan code or equivalent.", "label": "Reference ID", "name": "DOREFID", "ordinal": "6", "role": "Identifier", "simpleDatatype": "Char"}, {"_links": {"modelClassVariable": {"href": "/mdr/sdtm/1-7/classes/GeneralObservations/variables/--SPID", "title": "Sponsor-Defined Identifier", "type": "Class Variable"}, "parentDataset": {"href": "/mdr/sdtmig/md-1-1/datasets/DO", "title": "Device Properties", "type": "SDTM Dataset"}, "parentProduct": {"href": "/mdr/sdtmig/md-1-1", "title": "Study Data Tabulation Model Implementation Guide for Medical Devices (SDTMIG-MD) Version 1.1", "type": "Implementation Guide"}, "priorVersion": {"href": "/mdr/sdtmig/md-1-0/datasets/DO/variables/DOSPID", "title": "Sponsor-Defined Identifier", "type": "SDTM Dataset Variable"}, "rootItem": {"href": "/mdr/root/sdtmig/datasets/DO/variables/DOSPID", "title": "Version-agnostic anchor resource for SDTMIG variable DO.DOSPID", "type": "Root Data Element"}, "self": {"href": "/mdr/sdtmig/md-1-1/datasets/DO/variables/DOSPID", "title": "Sponsor-Defined Identifier", "type": "SDTM Dataset Variable"}}, "core": "Perm", "description": "Sponsor-defined reference number.", "label": "Sponsor-Defined Identifier", "name": "DOSPID", "ordinal": "7", "role": "Identifier", "simpleDatatype": "Char"}, {"_links": {"codelist": [{"href": "/mdr/root/ct/sdtmct/codelists/C111111", "title": "Version-agnostic anchor resource for codelist C111111", "type": "Root Value Domain"}], "modelClassVariable": {"href": "/mdr/sdtm/1-7/classes/Findings/variables/--TESTCD", "title": "Short Name of Measurement, Test, or Exam", "type": "Class Variable"}, "parentDataset": {"href": "/mdr/sdtmig/md-1-1/datasets/DO", "title": "Device Properties", "type": "SDTM Dataset"}, "parentProduct": {"href": "/mdr/sdtmig/md-1-1", "title": "Study Data Tabulation Model Implementation Guide for Medical Devices (SDTMIG-MD) Version 1.1", "type": "Implementation Guide"}, "priorVersion": {"href": "/mdr/sdtmig/md-1-0/datasets/DO/variables/DOTESTCD", "title": "Device Property  Short Name", "type": "SDTM Dataset Variable"}, "rootItem": {"href": "/mdr/root/sdtmig/datasets/DO/variables/DOTESTCD", "title": "Version-agnostic anchor resource for SDTMIG variable DO.DOTESTCD", "type": "Root Data Element"}, "self": {"href": "/mdr/sdtmig/md-1-1/datasets/DO/variables/DOTESTCD", "title": "Device Property Short Name", "type": "SDTM Dataset Variable"}}, "core": "Req", "description": "Short name of the measurement, test, or examination described in DOTEST. It can be used as a column name when converting a dataset from a vertical to a horizontal format. The value in DOTESTCD cannot be longer than 8 characters, nor can it start with a number (e.g., \"1TEST\"). DOTESTCD cannot contain characters other than letters, numbers, or underscores. Examples: \"SHLFLIFE\", \"INDC\", \"COMPOS\".", "label": "Device Property Short Name", "name": "DOTESTCD", "ordinal": "8", "role": "Topic", "simpleDatatype": "Char"}, {"_links": {"codelist": [{"href": "/mdr/root/ct/sdtmct/codelists/C111112", "title": "Version-agnostic anchor resource for codelist C111112", "type": "Root Value Domain"}], "modelClassVariable": {"href": "/mdr/sdtm/1-7/classes/Findings/variables/--TEST", "title": "Name of Measurement, Test, or Exam", "type": "Class Variable"}, "parentDataset": {"href": "/mdr/sdtmig/md-1-1/datasets/DO", "title": "Device Properties", "type": "SDTM Dataset"}, "parentProduct": {"href": "/mdr/sdtmig/md-1-1", "title": "Study Data Tabulation Model Implementation Guide for Medical Devices (SDTMIG-MD) Version 1.1", "type": "Implementation Guide"}, "priorVersion": {"href": "/mdr/sdtmig/md-1-0/datasets/DO/variables/DOTEST", "title": "Device Property  Test Name", "type": "SDTM Dataset Variable"}, "rootItem": {"href": "/mdr/root/sdtmig/datasets/DO/variables/DOTEST", "title": "Version-agnostic anchor resource for SDTMIG variable DO.DOTEST", "type": "Root Data Element"}, "self": {"href": "/mdr/sdtmig/md-1-1/datasets/DO/variables/DOTEST", "title": "Device Property Test Name", "type": "SDTM Dataset Variable"}}, "core": "Req", "description": "Verbatim name of the test or examination used to obtain the measurement or finding. The value in DOTEST cannot be longer than 40 characters. Examples: \"Shelf Life\", \"Indication for use\", \"Composition\" (of device).", "label": "Device Property Test Name", "name": "DOTEST", "ordinal": "9", "role": "Synonym Qualifier", "simpleDatatype": "Char"}, {"_links": {"modelClassVariable": {"href": "/mdr/sdtm/1-7/classes/Findings/variables/--CAT", "title": "Category", "type": "Class Variable"}, "parentDataset": {"href": "/mdr/sdtmig/md-1-1/datasets/DO", "title": "Device Properties", "type": "SDTM Dataset"}, "parentProduct": {"href": "/mdr/sdtmig/md-1-1", "title": "Study Data Tabulation Model Implementation Guide for Medical Devices (SDTMIG-MD) Version 1.1", "type": "Implementation Guide"}, "priorVersion": {"href": "/mdr/sdtmig/md-1-0/datasets/DO/variables/DOCAT", "title": "Category for Device In-Use", "type": "SDTM Dataset Variable"}, "rootItem": {"href": "/mdr/root/sdtmig/datasets/DO/variables/DOCAT", "title": "Version-agnostic anchor resource for SDTMIG variable DO.DOCAT", "type": "Root Data Element"}, "self": {"href": "/mdr/sdtmig/md-1-1/datasets/DO/variables/DOCAT", "title": "Category for Device In-Use", "type": "SDTM Dataset Variable"}}, "core": "Perm", "description": "Defines a category of related records. For example, it can be used to define the type of property being defined, such as \"DIMENSIONS\" versus \"MATERIAL\".", "label": "Category for Device In-Use", "name": "DOCAT", "ordinal": "10", "role": "Grouping Qualifier", "simpleDatatype": "Char"}, {"_links": {"modelClassVariable": {"href": "/mdr/sdtm/1-7/classes/Findings/variables/--SCAT", "title": "Subcategory", "type": "Class Variable"}, "parentDataset": {"href": "/mdr/sdtmig/md-1-1/datasets/DO", "title": "Device Properties", "type": "SDTM Dataset"}, "parentProduct": {"href": "/mdr/sdtmig/md-1-1", "title": "Study Data Tabulation Model Implementation Guide for Medical Devices (SDTMIG-MD) Version 1.1", "type": "Implementation Guide"}, "priorVersion": {"href": "/mdr/sdtmig/md-1-0/datasets/DO/variables/DOSCAT", "title": "Subcategory for Device In-Use", "type": "SDTM Dataset Variable"}, "rootItem": {"href": "/mdr/root/sdtmig/datasets/DO/variables/DOSCAT", "title": "Version-agnostic anchor resource for SDTMIG variable DO.DOSCAT", "type": "Root Data Element"}, "self": {"href": "/mdr/sdtmig/md-1-1/datasets/DO/variables/DOSCAT", "title": "Subcategory for Device In-Use", "type": "SDTM Dataset Variable"}}, "core": "Perm", "description": "A further categorization of a measurement or examination. For example, if DOCAT = \"DIMENSION\", DOSCAT might be \"LENGTH\" or \"WIDTH\" or \"THICKNESS\".", "label": "Subcategory for Device In-Use", "name": "DOSCAT", "ordinal": "11", "role": "Grouping Qualifier", "simpleDatatype": "Char"}, {"_links": {"modelClassVariable": {"href": "/mdr/sdtm/1-7/classes/Findings/variables/--ORRES", "title": "Result or Finding in Original Units", "type": "Class Variable"}, "parentDataset": {"href": "/mdr/sdtmig/md-1-1/datasets/DO", "title": "Device Properties", "type": "SDTM Dataset"}, "parentProduct": {"href": "/mdr/sdtmig/md-1-1", "title": "Study Data Tabulation Model Implementation Guide for Medical Devices (SDTMIG-MD) Version 1.1", "type": "Implementation Guide"}, "priorVersion": {"href": "/mdr/sdtmig/md-1-0/datasets/DO/variables/DOORRES", "title": "Result or Finding in Original Units", "type": "SDTM Dataset Variable"}, "rootItem": {"href": "/mdr/root/sdtmig/datasets/DO/variables/DOORRES", "title": "Version-agnostic anchor resource for SDTMIG variable DO.DOORRES", "type": "Root Data Element"}, "self": {"href": "/mdr/sdtmig/md-1-1/datasets/DO/variables/DOORRES", "title": "Result or Finding in Original Units", "type": "SDTM Dataset Variable"}}, "core": "Exp", "description": "Result of the Device Property as originally observed or collected. DOORRES should contain the result or value of the property defined in DOTEST. For example, if DOTEST is LIFE (shelf life), then DOORRES might be 6 (months).", "label": "Result or Finding in Original Units", "name": "DOORRES", "ordinal": "12", "role": "Result Qualifier", "simpleDatatype": "Char"}, {"_links": {"codelist": [{"href": "/mdr/root/ct/sdtmct/codelists/C71620", "title": "Version-agnostic anchor resource for codelist C71620", "type": "Root Value Domain"}], "modelClassVariable": {"href": "/mdr/sdtm/1-7/classes/Findings/variables/--ORRESU", "title": "Original Units", "type": "Class Variable"}, "parentDataset": {"href": "/mdr/sdtmig/md-1-1/datasets/DO", "title": "Device Properties", "type": "SDTM Dataset"}, "parentProduct": {"href": "/mdr/sdtmig/md-1-1", "title": "Study Data Tabulation Model Implementation Guide for Medical Devices (SDTMIG-MD) Version 1.1", "type": "Implementation Guide"}, "priorVersion": {"href": "/mdr/sdtmig/md-1-0/datasets/DO/variables/DOORRESU", "title": "Original Units", "type": "SDTM Dataset Variable"}, "rootItem": {"href": "/mdr/root/sdtmig/datasets/DO/variables/DOORRESU", "title": "Version-agnostic anchor resource for SDTMIG variable DO.DOORRESU", "type": "Root Data Element"}, "self": {"href": "/mdr/sdtmig/md-1-1/datasets/DO/variables/DOORRESU", "title": "Original Units", "type": "SDTM Dataset Variable"}}, "core": "Exp", "description": "Original units in which the data were collected. The unit for DOORRES. Examples: \"MONTHS\", \"cm\".", "label": "Original Units", "name": "DOORRESU", "ordinal": "13", "role": "Variable Qualifier", "simpleDatatype": "Char"}], "description": "A findings domain that contains the device characteristics that do not vary over the course of the study. (Source: CDISC Controlled Terminology, DOMAIN, C102619, 2018-06-29)", "label": "Device Properties", "name": "DO", "ordinal": "7"}], "description": "This SDTM class captures the observations resulting from planned evaluations to address specific tests or questions such as laboratory tests, ECG testing, and questions listed on questionnaires. (Source: CDISC Controlled Terminology, GNRLOBSC, C103373, 2018-06-29)", "label": "Findings Observation Class", "name": "Findings", "ordinal": "4"}, {"_links": {"modelClass": {"href": "/mdr/sdtm/1-7/classes/Relationship", "title": "Relationship Datasets", "type": "Class"}, "parentProduct": {"href": "/mdr/sdtmig/md-1-1", "title": "Study Data Tabulation Model Implementation Guide for Medical Devices (SDTMIG-MD) Version 1.1", "type": "Implementation Guide"}, "self": {"href": "/mdr/sdtmig/md-1-1/classes/Relationship", "title": "Relationship Datasets", "type": "Class"}}, "datasets": [{"_links": {"modelDataset": {"href": "/mdr/sdtm/1-7/datasets/DR", "title": "Device-Subject Relationships", "type": "SDTM Dataset"}, "parentClass": {"href": "/mdr/sdtmig/md-1-1/classes/Relationship", "title": "Relationship Datasets", "type": "Class"}, "parentProduct": {"href": "/mdr/sdtmig/md-1-1", "title": "Study Data Tabulation Model Implementation Guide for Medical Devices (SDTMIG-MD) Version 1.1", "type": "Implementation Guide"}, "priorVersion": {"href": "/mdr/sdtmig/md-1-0/datasets/DR", "title": "Device-Subject Relationships", "type": "SDTM Dataset"}, "self": {"href": "/mdr/sdtmig/md-1-1/datasets/DR", "title": "Device-Subject Relationships", "type": "SDTM Dataset"}}, "datasetStructure": "One record per device/subject combination", "datasetVariables": [{"_links": {"modelDatasetVariable": {"href": "/mdr/sdtm/1-7/datasets/DR/variables/STUDYID", "title": "Study Identifier", "type": "SDTM Dataset Variable"}, "parentDataset": {"href": "/mdr/sdtmig/md-1-1/datasets/DR", "title": "Device-Subject Relationships", "type": "SDTM Dataset"}, "parentProduct": {"href": "/mdr/sdtmig/md-1-1", "title": "Study Data Tabulation Model Implementation Guide for Medical Devices (SDTMIG-MD) Version 1.1", "type": "Implementation Guide"}, "priorVersion": {"href": "/mdr/sdtmig/md-1-0/datasets/DR/variables/STUDYID", "title": "Study Identifier", "type": "SDTM Dataset Variable"}, "rootItem": {"href": "/mdr/root/sdtmig/datasets/DR/variables/STUDYID", "title": "Version-agnostic anchor resource for SDTMIG variable DR.STUDYID", "type": "Root Data Element"}, "self": {"href": "/mdr/sdtmig/md-1-1/datasets/DR/variables/STUDYID", "title": "Study Identifier", "type": "SDTM Dataset Variable"}}, "core": "Req", "description": "Unique identifier for a study.", "label": "Study Identifier", "name": "STUDYID", "ordinal": "1", "role": "Identifier", "simpleDatatype": "Char"}, {"_links": {"modelDatasetVariable": {"href": "/mdr/sdtm/1-7/datasets/DR/variables/DOMAIN", "title": "Domain Abbreviation", "type": "SDTM Dataset Variable"}, "parentDataset": {"href": "/mdr/sdtmig/md-1-1/datasets/DR", "title": "Device-Subject Relationships", "type": "SDTM Dataset"}, "parentProduct": {"href": "/mdr/sdtmig/md-1-1", "title": "Study Data Tabulation Model Implementation Guide for Medical Devices (SDTMIG-MD) Version 1.1", "type": "Implementation Guide"}, "priorVersion": {"href": "/mdr/sdtmig/md-1-0/datasets/DR/variables/DOMAIN", "title": "Domain Abbreviation", "type": "SDTM Dataset Variable"}, "rootItem": {"href": "/mdr/root/sdtmig/datasets/DR/variables/DOMAIN", "title": "Version-agnostic anchor resource for SDTMIG variable DR.DOMAIN", "type": "Root Data Element"}, "self": {"href": "/mdr/sdtmig/md-1-1/datasets/DR/variables/DOMAIN", "title": "Domain Abbreviation", "type": "SDTM Dataset Variable"}}, "core": "Req", "description": "Two-character abbreviation for the domain.", "label": "Domain Abbreviation", "name": "DOMAIN", "ordinal": "2", "role": "Identifier", "simpleDatatype": "Char", "valueList": ["DR"]}, {"_links": {"modelDatasetVariable": {"href": "/mdr/sdtm/1-7/datasets/DR/variables/USUBJID", "title": "Unique Subject Identifier", "type": "SDTM Dataset Variable"}, "parentDataset": {"href": "/mdr/sdtmig/md-1-1/datasets/DR", "title": "Device-Subject Relationships", "type": "SDTM Dataset"}, "parentProduct": {"href": "/mdr/sdtmig/md-1-1", "title": "Study Data Tabulation Model Implementation Guide for Medical Devices (SDTMIG-MD) Version 1.1", "type": "Implementation Guide"}, "priorVersion": {"href": "/mdr/sdtmig/md-1-0/datasets/DR/variables/USUBJID", "title": "Unique Subject Identifier", "type": "SDTM Dataset Variable"}, "rootItem": {"href": "/mdr/root/sdtmig/datasets/DR/variables/USUBJID", "title": "Version-agnostic anchor resource for SDTMIG variable DR.USUBJID", "type": "Root Data Element"}, "self": {"href": "/mdr/sdtmig/md-1-1/datasets/DR/variables/USUBJID", "title": "Unique Subject Identifier", "type": "SDTM Dataset Variable"}}, "core": "Req", "description": "Identifier used to uniquely identify a subject across all studies for all applications or submissions involving the product. Required, as the purpose of this domain is to link each USUBJID to one or more devices.", "label": "Unique Subject Identifier", "name": "USUBJID", "ordinal": "3", "role": "Identifier", "simpleDatatype": "Char"}, {"_links": {"modelDatasetVariable": {"href": "/mdr/sdtm/1-7/datasets/DR/variables/SPDEVID", "title": "Sponsor Device Identifier", "type": "SDTM Dataset Variable"}, "parentDataset": {"href": "/mdr/sdtmig/md-1-1/datasets/DR", "title": "Device-Subject Relationships", "type": "SDTM Dataset"}, "parentProduct": {"href": "/mdr/sdtmig/md-1-1", "title": "Study Data Tabulation Model Implementation Guide for Medical Devices (SDTMIG-MD) Version 1.1", "type": "Implementation Guide"}, "priorVersion": {"href": "/mdr/sdtmig/md-1-0/datasets/DR/variables/SPDEVID", "title": "Sponsor Device Identifier", "type": "SDTM Dataset Variable"}, "rootItem": {"href": "/mdr/root/sdtmig/datasets/DR/variables/SPDEVID", "title": "Version-agnostic anchor resource for SDTMIG variable DR.SPDEVID", "type": "Root Data Element"}, "self": {"href": "/mdr/sdtmig/md-1-1/datasets/DR/variables/SPDEVID", "title": "Sponsor Device Identifier", "type": "SDTM Dataset Variable"}}, "core": "Req", "description": "Sponsor-defined identifier for the device. It must be unique for each tracked unit of the device under study, and can be at whatever level of granularity the device should be identified (e.g., model or serial number, combination of identifiers) as defined in DI.", "label": "Sponsor Device Identifier", "name": "SPDEVID", "ordinal": "4", "role": "Identifier", "simpleDatatype": "Char"}], "description": "A special-purpose domain that contains the linkage of each subject to the device(s) to which they may have been exposed during the study. (Source: CDISC Controlled Terminology, DOMAIN, C102620, 2018-06-29)", "label": "Device-Subject Relationships", "name": "DR", "ordinal": "6"}], "description": "This SDTM class provides a means to link related records between datasets. It includes the RELREC and SUPPQUAL datasets. (Source: CDISC Controlled Terminology, GNRLOBSC, C103376, 2018-06-29)", "label": "Relationship Datasets", "name": "Relationship", "ordinal": "5"}, {"_links": {"modelClass": {"href": "/mdr/sdtm/1-7/classes/StudyReference", "title": "Datasets for Study References", "type": "Class"}, "parentProduct": {"href": "/mdr/sdtmig/md-1-1", "title": "Study Data Tabulation Model Implementation Guide for Medical Devices (SDTMIG-MD) Version 1.1", "type": "Implementation Guide"}, "self": {"href": "/mdr/sdtmig/md-1-1/classes/StudyReference", "title": "Datasets for Study References", "type": "Class"}}, "datasets": [{"_links": {"modelDataset": {"href": "/mdr/sdtm/1-7/datasets/DI", "title": "Device Identifiers", "type": "SDTM Dataset"}, "parentClass": {"href": "/mdr/sdtmig/md-1-1/classes/StudyReference", "title": "Datasets for Study References", "type": "Class"}, "parentProduct": {"href": "/mdr/sdtmig/md-1-1", "title": "Study Data Tabulation Model Implementation Guide for Medical Devices (SDTMIG-MD) Version 1.1", "type": "Implementation Guide"}, "priorVersion": {"href": "/mdr/sdtmig/md-1-0/datasets/DI", "title": "Device Identifiers", "type": "SDTM Dataset"}, "self": {"href": "/mdr/sdtmig/md-1-1/datasets/DI", "title": "Device Identifiers", "type": "SDTM Dataset"}}, "datasetStructure": "One record per device identifier per device", "datasetVariables": [{"_links": {"modelDatasetVariable": {"href": "/mdr/sdtm/1-7/datasets/DI/variables/STUDYID", "title": "Study Identifier", "type": "SDTM Dataset Variable"}, "parentDataset": {"href": "/mdr/sdtmig/md-1-1/datasets/DI", "title": "Device Identifiers", "type": "SDTM Dataset"}, "parentProduct": {"href": "/mdr/sdtmig/md-1-1", "title": "Study Data Tabulation Model Implementation Guide for Medical Devices (SDTMIG-MD) Version 1.1", "type": "Implementation Guide"}, "priorVersion": {"href": "/mdr/sdtmig/md-1-0/datasets/DI/variables/STUDYID", "title": "Study Identifier", "type": "SDTM Dataset Variable"}, "rootItem": {"href": "/mdr/root/sdtmig/datasets/DI/variables/STUDYID", "title": "Version-agnostic anchor resource for SDTMIG variable DI.STUDYID", "type": "Root Data Element"}, "self": {"href": "/mdr/sdtmig/md-1-1/datasets/DI/variables/STUDYID", "title": "Study Identifier", "type": "SDTM Dataset Variable"}}, "core": "Req", "description": "Unique identifier for a study.", "label": "Study Identifier", "name": "STUDYID", "ordinal": "1", "role": "Identifier", "simpleDatatype": "Char"}, {"_links": {"modelDatasetVariable": {"href": "/mdr/sdtm/1-7/datasets/DI/variables/DOMAIN", "title": "Domain Abbreviation", "type": "SDTM Dataset Variable"}, "parentDataset": {"href": "/mdr/sdtmig/md-1-1/datasets/DI", "title": "Device Identifiers", "type": "SDTM Dataset"}, "parentProduct": {"href": "/mdr/sdtmig/md-1-1", "title": "Study Data Tabulation Model Implementation Guide for Medical Devices (SDTMIG-MD) Version 1.1", "type": "Implementation Guide"}, "priorVersion": {"href": "/mdr/sdtmig/md-1-0/datasets/DI/variables/DOMAIN", "title": "Domain Abbreviation", "type": "SDTM Dataset Variable"}, "rootItem": {"href": "/mdr/root/sdtmig/datasets/DI/variables/DOMAIN", "title": "Version-agnostic anchor resource for SDTMIG variable DI.DOMAIN", "type": "Root Data Element"}, "self": {"href": "/mdr/sdtmig/md-1-1/datasets/DI/variables/DOMAIN", "title": "Domain Abbreviation", "type": "SDTM Dataset Variable"}}, "core": "Req", "description": "Two-character abbreviation for the domain.", "label": "Domain Abbreviation", "name": "DOMAIN", "ordinal": "2", "role": "Identifier", "simpleDatatype": "Char", "valueList": ["DI"]}, {"_links": {"modelDatasetVariable": {"href": "/mdr/sdtm/1-7/datasets/DI/variables/SPDEVID", "title": "Sponsor Device Identifier", "type": "SDTM Dataset Variable"}, "parentDataset": {"href": "/mdr/sdtmig/md-1-1/datasets/DI", "title": "Device Identifiers", "type": "SDTM Dataset"}, "parentProduct": {"href": "/mdr/sdtmig/md-1-1", "title": "Study Data Tabulation Model Implementation Guide for Medical Devices (SDTMIG-MD) Version 1.1", "type": "Implementation Guide"}, "priorVersion": {"href": "/mdr/sdtmig/md-1-0/datasets/DI/variables/SPDEVID", "title": "Sponsor Device Identifier", "type": "SDTM Dataset Variable"}, "rootItem": {"href": "/mdr/root/sdtmig/datasets/DI/variables/SPDEVID", "title": "Version-agnostic anchor resource for SDTMIG variable DI.SPDEVID", "type": "Root Data Element"}, "self": {"href": "/mdr/sdtmig/md-1-1/datasets/DI/variables/SPDEVID", "title": "Sponsor Device Identifier", "type": "SDTM Dataset Variable"}}, "core": "Req", "description": "Sponsor-defined identifier for the device. It must be unique for each tracked unit of the device under study, and can be at whatever level of granularity the device should be identified (e.g., model or serial number, combination of identifiers).", "label": "Sponsor Device Identifier", "name": "SPDEVID", "ordinal": "3", "role": "Identifier", "simpleDatatype": "Char"}, {"_links": {"modelDatasetVariable": {"href": "/mdr/sdtm/1-7/datasets/DI/variables/DISEQ", "title": "Sequence Number", "type": "SDTM Dataset Variable"}, "parentDataset": {"href": "/mdr/sdtmig/md-1-1/datasets/DI", "title": "Device Identifiers", "type": "SDTM Dataset"}, "parentProduct": {"href": "/mdr/sdtmig/md-1-1", "title": "Study Data Tabulation Model Implementation Guide for Medical Devices (SDTMIG-MD) Version 1.1", "type": "Implementation Guide"}, "priorVersion": {"href": "/mdr/sdtmig/md-1-0/datasets/DI/variables/DISEQ", "title": "Sequence Number", "type": "SDTM Dataset Variable"}, "rootItem": {"href": "/mdr/root/sdtmig/datasets/DI/variables/DISEQ", "title": "Version-agnostic anchor resource for SDTMIG variable DI.DISEQ", "type": "Root Data Element"}, "self": {"href": "/mdr/sdtmig/md-1-1/datasets/DI/variables/DISEQ", "title": "Sequence Number", "type": "SDTM Dataset Variable"}}, "core": "Exp", "description": "Sequence number given to ensure uniqueness within a parameter within a device (SPDEVID) within dataset. If there is only one value for DIPARMCD for each value of SPDEVID, then DISEQ will be 1 for all records. DISEQ must be a valid number.", "label": "Sequence Number", "name": "DISEQ", "ordinal": "4", "role": "Identifier", "simpleDatatype": "Num"}, {"_links": {"modelDatasetVariable": {"href": "/mdr/sdtm/1-7/datasets/DI/variables/DIPARMCD", "title": "Device Identifier Element Short Name", "type": "SDTM Dataset Variable"}, "parentDataset": {"href": "/mdr/sdtmig/md-1-1/datasets/DI", "title": "Device Identifiers", "type": "SDTM Dataset"}, "parentProduct": {"href": "/mdr/sdtmig/md-1-1", "title": "Study Data Tabulation Model Implementation Guide for Medical Devices (SDTMIG-MD) Version 1.1", "type": "Implementation Guide"}, "priorVersion": {"href": "/mdr/sdtmig/md-1-0/datasets/DI/variables/DIPARMCD", "title": "Device Identifier Element Short Name", "type": "SDTM Dataset Variable"}, "rootItem": {"href": "/mdr/root/sdtmig/datasets/DI/variables/DIPARMCD", "title": "Version-agnostic anchor resource for SDTMIG variable DI.DIPARMCD", "type": "Root Data Element"}, "self": {"href": "/mdr/sdtmig/md-1-1/datasets/DI/variables/DIPARMCD", "title": "Device Identifier Element Short Name", "type": "SDTM Dataset Variable"}}, "core": "Req", "description": "Short name of the identifier characteristic of the device (e.g., \"SERIAL\", \"MODEL\"). A record with DIPARMCD = \"DEVTYPE\" should be included (see below).", "label": "Device Identifier Element Short Name", "name": "DIPARMCD", "ordinal": "5", "role": "Topic", "simpleDatatype": "Char"}, {"_links": {"modelDatasetVariable": {"href": "/mdr/sdtm/1-7/datasets/DI/variables/DIPARM", "title": "Device Identifier Element Name", "type": "SDTM Dataset Variable"}, "parentDataset": {"href": "/mdr/sdtmig/md-1-1/datasets/DI", "title": "Device Identifiers", "type": "SDTM Dataset"}, "parentProduct": {"href": "/mdr/sdtmig/md-1-1", "title": "Study Data Tabulation Model Implementation Guide for Medical Devices (SDTMIG-MD) Version 1.1", "type": "Implementation Guide"}, "priorVersion": {"href": "/mdr/sdtmig/md-1-0/datasets/DI/variables/DIPARM", "title": "Device Identifier  Element Name", "type": "SDTM Dataset Variable"}, "rootItem": {"href": "/mdr/root/sdtmig/datasets/DI/variables/DIPARM", "title": "Version-agnostic anchor resource for SDTMIG variable DI.DIPARM", "type": "Root Data Element"}, "self": {"href": "/mdr/sdtmig/md-1-1/datasets/DI/variables/DIPARM", "title": "Device Identifier Element Name", "type": "SDTM Dataset Variable"}}, "core": "Req", "description": "Name of the identifier characteristic of the device. Examples: Serial Number, Model. A record with DIPARM = \"DEVTYPE\" should be included (see below).", "label": "Device Identifier Element Name", "name": "DIPARM", "ordinal": "6", "role": "Synonym Qualifier", "simpleDatatype": "Char"}, {"_links": {"modelDatasetVariable": {"href": "/mdr/sdtm/1-7/datasets/DI/variables/DIVAL", "title": "Device Identifier Element Value", "type": "SDTM Dataset Variable"}, "parentDataset": {"href": "/mdr/sdtmig/md-1-1/datasets/DI", "title": "Device Identifiers", "type": "SDTM Dataset"}, "parentProduct": {"href": "/mdr/sdtmig/md-1-1", "title": "Study Data Tabulation Model Implementation Guide for Medical Devices (SDTMIG-MD) Version 1.1", "type": "Implementation Guide"}, "priorVersion": {"href": "/mdr/sdtmig/md-1-0/datasets/DI/variables/DIVAL", "title": "Device Identifier Element Value", "type": "SDTM Dataset Variable"}, "rootItem": {"href": "/mdr/root/sdtmig/datasets/DI/variables/DIVAL", "title": "Version-agnostic anchor resource for SDTMIG variable DI.DIVAL", "type": "Root Data Element"}, "self": {"href": "/mdr/sdtmig/md-1-1/datasets/DI/variables/DIVAL", "title": "Device Identifier Element Value", "type": "SDTM Dataset Variable"}}, "core": "Req", "description": "Value for the parameter. Value for the parameter. When DIPARMCD=DEVTYPE it should use controlled terminology defined by FDA in their Preferred Term codelist. FDA has stated a preference for the Global Medical Device Nomenclature (GMDN), but as of the date of this publication, the GMDN is not freely available to the public. In its Unique Device Identification rule, FDA indicated that GMDN will not be required unless it is available to the public at no cost. There is a lookup tool on the FDA website to map GMDN codes to FDA PT codes.", "label": "Device Identifier Element Value", "name": "DIVAL", "ordinal": "7", "role": "Result Qualifier", "simpleDatatype": "Char"}], "description": "A special-purpose domain containing information that identifies a specific device unit. (Source: CDISC Controlled Terminology, DOMAIN, C102618, 2018-06-29)", "label": "Device Identifiers", "name": "DI", "ordinal": "1"}], "description": "This special purpose SDTM class contains further descriptions of study-specific identifiers that will be used in subject based domains. (Source: CDISC Controlled Terminology, GNRLOBSC, C147271, 2018-06-29)", "label": "Datasets for Study References", "name": "Study Reference", "ordinal": "6"}], "description": "This Medical Device Implementation Guide (IG) to the Study Data Tabulation Model (SDTM) defines recommended standards for the submission of data from clinical trials in which ,edical devices were used, and is referred to as the SDTMIG-MD.", "effectiveDate": "2018-12-12", "label": "Study Data Tabulation Model Implementation Guide for Medical Devices (SDTMIG-MD) Version 1.1", "name": "SDTMIG-MD v1.1", "registrationStatus": "Final", "source": "Prepared by the CDISC Device Team", "version": "1.1"}
