{"_links": {"model": {"href": "/mdr/sdtm/1-8", "title": "Study Data Tabulation Model Version 1.8 (Final)", "type": "Foundational Model"}, "self": {"href": "/mdr/sendig/ar-1-0", "title": "Standard for Exchange of Nonclinical Data Implementation Guide: Animal Rule Version 1.0 (Final)", "type": "Implementation Guide"}}, "classes": [{"_links": {"modelClass": {"href": "/mdr/sdtm/1-8/classes/GeneralObservations", "title": "General Observation Class", "type": "Class"}, "parentProduct": {"href": "/mdr/sendig/ar-1-0", "title": "Standard for Exchange of Nonclinical Data Implementation Guide: Animal Rule Version 1.0 (Final)", "type": "Implementation Guide"}, "self": {"href": "/mdr/sendig/ar-1-0/classes/GeneralObservations", "title": "General Observation Class", "type": "Class"}, "subclasses": [{"href": "/mdr/sendig/ar-1-0/classes/Interventions", "title": "Interventions Observation Class", "type": "Class"}, {"href": "/mdr/sendig/ar-1-0/classes/Events", "title": "Events Observation Class", "type": "Class"}, {"href": "/mdr/sendig/ar-1-0/classes/Findings", "title": "Findings Observation Class", "type": "Class"}]}, "description": "The majority of observations collected during a study can be divided among three general classes: Interventions, Events, or Findings.  Datasets based on any of the general observation classes share a set of common Identifier and Timing variables. As a general rule, any valid Identifier or Timing variable is permissible for use in any submission dataset based on a general observation class. (Source: SDTM v1.8, Section 2.2)", "label": "General Observation Class", "name": "General Observations", "ordinal": "1"}, {"_links": {"modelClass": {"href": "/mdr/sdtm/1-8/classes/SpecialPurpose", "title": "Special-Purpose Datasets", "type": "Class"}, "parentProduct": {"href": "/mdr/sendig/ar-1-0", "title": "Standard for Exchange of Nonclinical Data Implementation Guide: Animal Rule Version 1.0 (Final)", "type": "Implementation Guide"}, "self": {"href": "/mdr/sendig/ar-1-0/classes/SpecialPurpose", "title": "Special-Purpose Datasets", "type": "Class"}}, "datasets": [{"_links": {"modelDataset": {"href": "/mdr/sdtm/1-8/datasets/DM", "title": "Demographics", "type": "SDTM Dataset"}, "parentClass": {"href": "/mdr/sendig/ar-1-0/classes/SpecialPurpose", "title": "Special-Purpose Datasets", "type": "Class"}, "parentProduct": {"href": "/mdr/sendig/ar-1-0", "title": "Standard for Exchange of Nonclinical Data Implementation Guide: Animal Rule Version 1.0 (Final)", "type": "Implementation Guide"}, "self": {"href": "/mdr/sendig/ar-1-0/datasets/DM", "title": "Demographics", "type": "SDTM Dataset"}}, "datasetStructure": "One record per subject", "datasetVariables": [{"_links": {"modelDatasetVariable": {"href": "/mdr/sdtm/1-8/datasets/DM/variables/STUDYID", "title": "Study Identifier", "type": "SDTM Dataset Variable"}, "parentDataset": {"href": "/mdr/sendig/ar-1-0/datasets/DM", "title": "Demographics", "type": "SDTM Dataset"}, "parentProduct": {"href": "/mdr/sendig/ar-1-0", "title": "Standard for Exchange of Nonclinical Data Implementation Guide: Animal Rule Version 1.0 (Final)", "type": "Implementation Guide"}, "rootItem": {"href": "/mdr/root/sendig/datasets/DM/variables/STUDYID", "title": "Version-agnostic anchor resource for SENDIG variable DM.STUDYID", "type": "Root Data Element"}, "self": {"href": "/mdr/sendig/ar-1-0/datasets/DM/variables/STUDYID", "title": "Study Identifier", "type": "SDTM Dataset Variable"}}, "core": "Req", "description": "Unique identifier for a study.", "label": "Study Identifier", "name": "STUDYID", "ordinal": "1", "role": "Identifier", "simpleDatatype": "Char"}, {"_links": {"modelDatasetVariable": {"href": "/mdr/sdtm/1-8/datasets/DM/variables/DOMAIN", "title": "Domain Abbreviation", "type": "SDTM Dataset Variable"}, "parentDataset": {"href": "/mdr/sendig/ar-1-0/datasets/DM", "title": "Demographics", "type": "SDTM Dataset"}, "parentProduct": {"href": "/mdr/sendig/ar-1-0", "title": "Standard for Exchange of Nonclinical Data Implementation Guide: Animal Rule Version 1.0 (Final)", "type": "Implementation Guide"}, "rootItem": {"href": "/mdr/root/sendig/datasets/DM/variables/DOMAIN", "title": "Version-agnostic anchor resource for SENDIG variable DM.DOMAIN", "type": "Root Data Element"}, "self": {"href": "/mdr/sendig/ar-1-0/datasets/DM/variables/DOMAIN", "title": "Domain Abbreviation", "type": "SDTM Dataset Variable"}}, "core": "Req", "description": "Two-character abbreviation for the domain.", "label": "Domain Abbreviation", "name": "DOMAIN", "ordinal": "2", "role": "Identifier", "simpleDatatype": "Char", "valueList": ["DM"]}, {"_links": {"modelDatasetVariable": {"href": "/mdr/sdtm/1-8/datasets/DM/variables/USUBJID", "title": "Unique Subject Identifier", "type": "SDTM Dataset Variable"}, "parentDataset": {"href": "/mdr/sendig/ar-1-0/datasets/DM", "title": "Demographics", "type": "SDTM Dataset"}, "parentProduct": {"href": "/mdr/sendig/ar-1-0", "title": "Standard for Exchange of Nonclinical Data Implementation Guide: Animal Rule Version 1.0 (Final)", "type": "Implementation Guide"}, "rootItem": {"href": "/mdr/root/sendig/datasets/DM/variables/USUBJID", "title": "Version-agnostic anchor resource for SENDIG variable DM.USUBJID", "type": "Root Data Element"}, "self": {"href": "/mdr/sendig/ar-1-0/datasets/DM/variables/USUBJID", "title": "Unique Subject Identifier", "type": "SDTM Dataset Variable"}}, "core": "Req", "description": "Identifier used to uniquely identify a subject across all studies for all applications or submissions involving the product.", "label": "Unique Subject Identifier", "name": "USUBJID", "ordinal": "3", "role": "Identifier", "simpleDatatype": "Char"}, {"_links": {"modelDatasetVariable": {"href": "/mdr/sdtm/1-8/datasets/DM/variables/SUBJID", "title": "Subject Identifier for the Study", "type": "SDTM Dataset Variable"}, "parentDataset": {"href": "/mdr/sendig/ar-1-0/datasets/DM", "title": "Demographics", "type": "SDTM Dataset"}, "parentProduct": {"href": "/mdr/sendig/ar-1-0", "title": "Standard for Exchange of Nonclinical Data Implementation Guide: Animal Rule Version 1.0 (Final)", "type": "Implementation Guide"}, "rootItem": {"href": "/mdr/root/sendig/datasets/DM/variables/SUBJID", "title": "Version-agnostic anchor resource for SENDIG variable DM.SUBJID", "type": "Root Data Element"}, "self": {"href": "/mdr/sendig/ar-1-0/datasets/DM/variables/SUBJID", "title": "Subject Identifier for the Study", "type": "SDTM Dataset Variable"}}, "core": "Req", "description": "Subject (i.e., animal) identifier used within the study.", "label": "Subject Identifier for the Study", "name": "SUBJID", "ordinal": "4", "role": "Topic", "simpleDatatype": "Char"}, {"_links": {"modelDatasetVariable": {"href": "/mdr/sdtm/1-8/datasets/DM/variables/RFSTDTC", "title": "Subject Reference Start Date/Time", "type": "SDTM Dataset Variable"}, "parentDataset": {"href": "/mdr/sendig/ar-1-0/datasets/DM", "title": "Demographics", "type": "SDTM Dataset"}, "parentProduct": {"href": "/mdr/sendig/ar-1-0", "title": "Standard for Exchange of Nonclinical Data Implementation Guide: Animal Rule Version 1.0 (Final)", "type": "Implementation Guide"}, "rootItem": {"href": "/mdr/root/sendig/datasets/DM/variables/RFSTDTC", "title": "Version-agnostic anchor resource for SENDIG variable DM.RFSTDTC", "type": "Root Data Element"}, "self": {"href": "/mdr/sendig/ar-1-0/datasets/DM/variables/RFSTDTC", "title": "Subject Reference Start Date/Time", "type": "SDTM Dataset Variable"}}, "core": "Req", "describedValueDomain": "ISO 8601", "description": "Reference start date/time for the subject in ISO 8601 format. Usually equivalent to date/time when subject was first exposed to study treatment. Study day calculation (the --DY variable) in all domains will be based on this date. The sponsor must define what collected date is used to populate RFSTDTC in the data definition file.", "label": "Subject Reference Start Date/Time", "name": "RFSTDTC", "ordinal": "5", "role": "Record Qualifier", "simpleDatatype": "Char"}, {"_links": {"modelDatasetVariable": {"href": "/mdr/sdtm/1-8/datasets/DM/variables/RFENDTC", "title": "Subject Reference End Date/Time", "type": "SDTM Dataset Variable"}, "parentDataset": {"href": "/mdr/sendig/ar-1-0/datasets/DM", "title": "Demographics", "type": "SDTM Dataset"}, "parentProduct": {"href": "/mdr/sendig/ar-1-0", "title": "Standard for Exchange of Nonclinical Data Implementation Guide: Animal Rule Version 1.0 (Final)", "type": "Implementation Guide"}, "rootItem": {"href": "/mdr/root/sendig/datasets/DM/variables/RFENDTC", "title": "Version-agnostic anchor resource for SENDIG variable DM.RFENDTC", "type": "Root Data Element"}, "self": {"href": "/mdr/sendig/ar-1-0/datasets/DM/variables/RFENDTC", "title": "Subject Reference End Date/Time", "type": "SDTM Dataset Variable"}}, "core": "Exp", "describedValueDomain": "ISO 8601", "description": "Reference end date/time for the subject in ISO 8601 format. Usually equivalent to the date/time when the subject was determined to have left the study. The sponsor must define what collected date is used to populate RFENDTC in the data definition file.", "label": "Subject Reference End Date/Time", "name": "RFENDTC", "ordinal": "6", "role": "Record Qualifier", "simpleDatatype": "Char"}, {"_links": {"modelDatasetVariable": {"href": "/mdr/sdtm/1-8/datasets/DM/variables/RFXSTDTC", "title": "Date/Time of First Study Treatment", "type": "SDTM Dataset Variable"}, "parentDataset": {"href": "/mdr/sendig/ar-1-0/datasets/DM", "title": "Demographics", "type": "SDTM Dataset"}, "parentProduct": {"href": "/mdr/sendig/ar-1-0", "title": "Standard for Exchange of Nonclinical Data Implementation Guide: Animal Rule Version 1.0 (Final)", "type": "Implementation Guide"}, "rootItem": {"href": "/mdr/root/sendig/datasets/DM/variables/RFXSTDTC", "title": "Version-agnostic anchor resource for SENDIG variable DM.RFXSTDTC", "type": "Root Data Element"}, "self": {"href": "/mdr/sendig/ar-1-0/datasets/DM/variables/RFXSTDTC", "title": "Date/Time of First Study Treatment", "type": "SDTM Dataset Variable"}}, "core": "Exp", "describedValueDomain": "ISO 8601", "description": "First date/time of exposure to any protocol-specified treatment or therapy, equal to the earliest value of EXSTDTC. Note: Absolute first.", "label": "Date/Time of First Study Treatment", "name": "RFXSTDTC", "ordinal": "7", "role": "Record Qualifier", "simpleDatatype": "Char"}, {"_links": {"modelDatasetVariable": {"href": "/mdr/sdtm/1-8/datasets/DM/variables/RFXENDTC", "title": "Date/Time of Last Study Treatment", "type": "SDTM Dataset Variable"}, "parentDataset": {"href": "/mdr/sendig/ar-1-0/datasets/DM", "title": "Demographics", "type": "SDTM Dataset"}, "parentProduct": {"href": "/mdr/sendig/ar-1-0", "title": "Standard for Exchange of Nonclinical Data Implementation Guide: Animal Rule Version 1.0 (Final)", "type": "Implementation Guide"}, "rootItem": {"href": "/mdr/root/sendig/datasets/DM/variables/RFXENDTC", "title": "Version-agnostic anchor resource for SENDIG variable DM.RFXENDTC", "type": "Root Data Element"}, "self": {"href": "/mdr/sendig/ar-1-0/datasets/DM/variables/RFXENDTC", "title": "Date/Time of Last Study Treatment", "type": "SDTM Dataset Variable"}}, "core": "Exp", "describedValueDomain": "ISO 8601", "description": "Last date/time of exposure to any protocol-specified treatment or therapy, equal to the latest value of EXENDTC (or the latest value of EXSTDTC if EXENDTC was not collected or is missing). Note: Absolute last.", "label": "Date/Time of Last Study Treatment", "name": "RFXENDTC", "ordinal": "8", "role": "Record Qualifier", "simpleDatatype": "Char"}, {"_links": {"modelDatasetVariable": {"href": "/mdr/sdtm/1-8/datasets/DM/variables/RFCSTDTC", "title": "Date/Time of First Challenge Agent Admin", "type": "SDTM Dataset Variable"}, "parentDataset": {"href": "/mdr/sendig/ar-1-0/datasets/DM", "title": "Demographics", "type": "SDTM Dataset"}, "parentProduct": {"href": "/mdr/sendig/ar-1-0", "title": "Standard for Exchange of Nonclinical Data Implementation Guide: Animal Rule Version 1.0 (Final)", "type": "Implementation Guide"}, "rootItem": {"href": "/mdr/root/sendig/datasets/DM/variables/RFCSTDTC", "title": "Version-agnostic anchor resource for SENDIG variable DM.RFCSTDTC", "type": "Root Data Element"}, "self": {"href": "/mdr/sendig/ar-1-0/datasets/DM/variables/RFCSTDTC", "title": "Date/Time of First Challenge Agent Admin", "type": "SDTM Dataset Variable"}}, "core": "Exp", "describedValueDomain": "ISO 8601", "description": "The start date or date and time of the first exposure to any protocol-specified challenge agent that induces the disease or condition that the investigational treatment is intended to cure, mitigate, treat, or prevent, represented in a standardized character format. \n Equal to the earliest value of AGSTDTC for the challenge agent.", "label": "Date/Time of First Challenge Agent Admin", "name": "RFCSTDTC", "ordinal": "9", "role": "Record Qualifier", "simpleDatatype": "Char"}, {"_links": {"modelDatasetVariable": {"href": "/mdr/sdtm/1-8/datasets/DM/variables/RFCENDTC", "title": "Date/Time of Last Challenge Agent Admin", "type": "SDTM Dataset Variable"}, "parentDataset": {"href": "/mdr/sendig/ar-1-0/datasets/DM", "title": "Demographics", "type": "SDTM Dataset"}, "parentProduct": {"href": "/mdr/sendig/ar-1-0", "title": "Standard for Exchange of Nonclinical Data Implementation Guide: Animal Rule Version 1.0 (Final)", "type": "Implementation Guide"}, "rootItem": {"href": "/mdr/root/sendig/datasets/DM/variables/RFCENDTC", "title": "Version-agnostic anchor resource for SENDIG variable DM.RFCENDTC", "type": "Root Data Element"}, "self": {"href": "/mdr/sendig/ar-1-0/datasets/DM/variables/RFCENDTC", "title": "Date/Time of Last Challenge Agent Admin", "type": "SDTM Dataset Variable"}}, "core": "Exp", "describedValueDomain": "ISO 8601", "description": "The end date or date and time of the last exposure to any protocol-specified challenge agent that induces the disease or condition that the investigational treatment is intended to cure, mitigate, treat, or prevent, represented in a standardized character format. \n Equal to the latest value of AGENDTC for the challenge agent.", "label": "Date/Time of Last Challenge Agent Admin", "name": "RFCENDTC", "ordinal": "10", "role": "Record Qualifier", "simpleDatatype": "Char"}, {"_links": {"modelDatasetVariable": {"href": "/mdr/sdtm/1-8/datasets/DM/variables/SITEID", "title": "Study Site Identifier", "type": "SDTM Dataset Variable"}, "parentDataset": {"href": "/mdr/sendig/ar-1-0/datasets/DM", "title": "Demographics", "type": "SDTM Dataset"}, "parentProduct": {"href": "/mdr/sendig/ar-1-0", "title": "Standard for Exchange of Nonclinical Data Implementation Guide: Animal Rule Version 1.0 (Final)", "type": "Implementation Guide"}, "rootItem": {"href": "/mdr/root/sendig/datasets/DM/variables/SITEID", "title": "Version-agnostic anchor resource for SENDIG variable DM.SITEID", "type": "Root Data Element"}, "self": {"href": "/mdr/sendig/ar-1-0/datasets/DM/variables/SITEID", "title": "Study Site Identifier", "type": "SDTM Dataset Variable"}}, "core": "Perm", "description": "Unique identifier for a study site within a submission. Use only if subjects are housed at different sites.", "label": "Study Site Identifier", "name": "SITEID", "ordinal": "11", "role": "Record Qualifier", "simpleDatatype": "Char"}, {"_links": {"modelDatasetVariable": {"href": "/mdr/sdtm/1-8/datasets/DM/variables/BRTHDTC", "title": "Date/Time of Birth", "type": "SDTM Dataset Variable"}, "parentDataset": {"href": "/mdr/sendig/ar-1-0/datasets/DM", "title": "Demographics", "type": "SDTM Dataset"}, "parentProduct": {"href": "/mdr/sendig/ar-1-0", "title": "Standard for Exchange of Nonclinical Data Implementation Guide: Animal Rule Version 1.0 (Final)", "type": "Implementation Guide"}, "rootItem": {"href": "/mdr/root/sendig/datasets/DM/variables/BRTHDTC", "title": "Version-agnostic anchor resource for SENDIG variable DM.BRTHDTC", "type": "Root Data Element"}, "self": {"href": "/mdr/sendig/ar-1-0/datasets/DM/variables/BRTHDTC", "title": "Date/Time of Birth", "type": "SDTM Dataset Variable"}}, "core": "Perm", "describedValueDomain": "ISO 8601", "description": "Date/time of birth of the subject, in ISO 8601 format.", "label": "Date/Time of Birth", "name": "BRTHDTC", "ordinal": "12", "role": "Record Qualifier", "simpleDatatype": "Char"}, {"_links": {"modelDatasetVariable": {"href": "/mdr/sdtm/1-8/datasets/DM/variables/AGE", "title": "Age", "type": "SDTM Dataset Variable"}, "parentDataset": {"href": "/mdr/sendig/ar-1-0/datasets/DM", "title": "Demographics", "type": "SDTM Dataset"}, "parentProduct": {"href": "/mdr/sendig/ar-1-0", "title": "Standard for Exchange of Nonclinical Data Implementation Guide: Animal Rule Version 1.0 (Final)", "type": "Implementation Guide"}, "rootItem": {"href": "/mdr/root/sendig/datasets/DM/variables/AGE", "title": "Version-agnostic anchor resource for SENDIG variable DM.AGE", "type": "Root Data Element"}, "self": {"href": "/mdr/sendig/ar-1-0/datasets/DM/variables/AGE", "title": "Age", "type": "SDTM Dataset Variable"}}, "core": "Perm", "description": "May be derived (RFSTDTC - BRTHDTC), but BRTHDTC may not be available in all cases. Age may also be collected.", "label": "Age", "name": "AGE", "ordinal": "13", "role": "Record Qualifier", "simpleDatatype": "Num"}, {"_links": {"modelDatasetVariable": {"href": "/mdr/sdtm/1-8/datasets/DM/variables/AGETXT", "title": "Age Text", "type": "SDTM Dataset Variable"}, "parentDataset": {"href": "/mdr/sendig/ar-1-0/datasets/DM", "title": "Demographics", "type": "SDTM Dataset"}, "parentProduct": {"href": "/mdr/sendig/ar-1-0", "title": "Standard for Exchange of Nonclinical Data Implementation Guide: Animal Rule Version 1.0 (Final)", "type": "Implementation Guide"}, "rootItem": {"href": "/mdr/root/sendig/datasets/DM/variables/AGETXT", "title": "Version-agnostic anchor resource for SENDIG variable DM.AGETXT", "type": "Root Data Element"}, "self": {"href": "/mdr/sendig/ar-1-0/datasets/DM/variables/AGETXT", "title": "Age Range", "type": "SDTM Dataset Variable"}}, "core": "Perm", "describedValueDomain": "number-number", "description": "Used when the age is a range and the exact birthdate is not known. This variable is a character field for the purpose of defining age ranges (e.g., if the information available for the age of the subject is 6-8 and AGEU is WEEKS). Populate only when BRTHDTC or AGE is not specified. The format for AGETXT is \"number-number\" (e.g., \"6-8\").", "label": "Age Range", "name": "AGETXT", "ordinal": "14", "role": "Record Qualifier", "simpleDatatype": "Char"}, {"_links": {"codelist": [{"href": "/mdr/root/ct/sendct/codelists/C66781", "title": "Version-agnostic anchor resource for codelist C66781", "type": "Root Value Domain"}], "modelDatasetVariable": {"href": "/mdr/sdtm/1-8/datasets/DM/variables/AGEU", "title": "Age Units", "type": "SDTM Dataset Variable"}, "parentDataset": {"href": "/mdr/sendig/ar-1-0/datasets/DM", "title": "Demographics", "type": "SDTM Dataset"}, "parentProduct": {"href": "/mdr/sendig/ar-1-0", "title": "Standard for Exchange of Nonclinical Data Implementation Guide: Animal Rule Version 1.0 (Final)", "type": "Implementation Guide"}, "rootItem": {"href": "/mdr/root/sendig/datasets/DM/variables/AGEU", "title": "Version-agnostic anchor resource for SENDIG variable DM.AGEU", "type": "Root Data Element"}, "self": {"href": "/mdr/sendig/ar-1-0/datasets/DM/variables/AGEU", "title": "Age Unit", "type": "SDTM Dataset Variable"}}, "core": "Exp", "description": "Units associated with AGE and AGETXT.", "label": "Age Unit", "name": "AGEU", "ordinal": "15", "role": "Variable Qualifier", "simpleDatatype": "Char"}, {"_links": {"codelist": [{"href": "/mdr/root/ct/sendct/codelists/C66731", "title": "Version-agnostic anchor resource for codelist C66731", "type": "Root Value Domain"}], "modelDatasetVariable": {"href": "/mdr/sdtm/1-8/datasets/DM/variables/SEX", "title": "Sex", "type": "SDTM Dataset Variable"}, "parentDataset": {"href": "/mdr/sendig/ar-1-0/datasets/DM", "title": "Demographics", "type": "SDTM Dataset"}, "parentProduct": {"href": "/mdr/sendig/ar-1-0", "title": "Standard for Exchange of Nonclinical Data Implementation Guide: Animal Rule Version 1.0 (Final)", "type": "Implementation Guide"}, "rootItem": {"href": "/mdr/root/sendig/datasets/DM/variables/SEX", "title": "Version-agnostic anchor resource for SENDIG variable DM.SEX", "type": "Root Data Element"}, "self": {"href": "/mdr/sendig/ar-1-0/datasets/DM/variables/SEX", "title": "Sex", "type": "SDTM Dataset Variable"}}, "core": "Req", "description": "The sex of the subject.", "label": "Sex", "name": "SEX", "ordinal": "16", "role": "Record Qualifier", "simpleDatatype": "Char"}, {"_links": {"codelist": [{"href": "/mdr/root/ct/sendct/codelists/C160931", "title": "Version-agnostic anchor resource for codelist C160931", "type": "Root Value Domain"}], "modelDatasetVariable": {"href": "/mdr/sdtm/1-8/datasets/DM/variables/SPECIES", "title": "Species", "type": "SDTM Dataset Variable"}, "parentDataset": {"href": "/mdr/sendig/ar-1-0/datasets/DM", "title": "Demographics", "type": "SDTM Dataset"}, "parentProduct": {"href": "/mdr/sendig/ar-1-0", "title": "Standard for Exchange of Nonclinical Data Implementation Guide: Animal Rule Version 1.0 (Final)", "type": "Implementation Guide"}, "rootItem": {"href": "/mdr/root/sendig/datasets/DM/variables/SPECIES", "title": "Version-agnostic anchor resource for SENDIG variable DM.SPECIES", "type": "Root Data Element"}, "self": {"href": "/mdr/sendig/ar-1-0/datasets/DM/variables/SPECIES", "title": "Species", "type": "SDTM Dataset Variable"}}, "core": "Perm", "description": "If this variable is excluded in the DM domain, the information must be present at a higher level (either Trial Sets or Trial Summary).", "label": "Species", "name": "SPECIES", "ordinal": "17", "role": "Record Qualifier", "simpleDatatype": "Char"}, {"_links": {"codelist": [{"href": "/mdr/root/ct/sendct/codelists/C77530", "title": "Version-agnostic anchor resource for codelist C77530", "type": "Root Value Domain"}], "modelDatasetVariable": {"href": "/mdr/sdtm/1-8/datasets/DM/variables/STRAIN", "title": "Strain/Substrain", "type": "SDTM Dataset Variable"}, "parentDataset": {"href": "/mdr/sendig/ar-1-0/datasets/DM", "title": "Demographics", "type": "SDTM Dataset"}, "parentProduct": {"href": "/mdr/sendig/ar-1-0", "title": "Standard for Exchange of Nonclinical Data Implementation Guide: Animal Rule Version 1.0 (Final)", "type": "Implementation Guide"}, "rootItem": {"href": "/mdr/root/sendig/datasets/DM/variables/STRAIN", "title": "Version-agnostic anchor resource for SENDIG variable DM.STRAIN", "type": "Root Data Element"}, "self": {"href": "/mdr/sendig/ar-1-0/datasets/DM/variables/STRAIN", "title": "Strain/Substrain", "type": "SDTM Dataset Variable"}}, "core": "Perm", "describedValueDomain": "Mouse Genome Database; Rat Genome Database", "description": "Used to identify the vendor-supplied strain. \n MGI Nomenclature should be used for mice. See http://www.informatics.jax.org/mgihome/nomen/strains.shtml \n The Rat Genome Database should be used for rats. See https://rgd.mcw.edu \n It is important that the full symbol for the strain, not an abbreviated form, be used. Because the .xpt format does not support superscripts, superscripted text should be enclosed in angle brackets (i.e., \"<value>\"). For example, \"B6.Cg-Tyrc-2JHrhr/J\" would be \"B6.Cg-Tyr<c-2J>Hr<hr>/J\". \n The STRAIN codelist should be used for all species other than rats and mice.", "label": "Strain/Substrain", "name": "STRAIN", "ordinal": "18", "role": "Record Qualifier", "simpleDatatype": "Char"}, {"_links": {"modelDatasetVariable": {"href": "/mdr/sdtm/1-8/datasets/DM/variables/SBSTRAIN", "title": "Strain/Substrain Details", "type": "SDTM Dataset Variable"}, "parentDataset": {"href": "/mdr/sendig/ar-1-0/datasets/DM", "title": "Demographics", "type": "SDTM Dataset"}, "parentProduct": {"href": "/mdr/sendig/ar-1-0", "title": "Standard for Exchange of Nonclinical Data Implementation Guide: Animal Rule Version 1.0 (Final)", "type": "Implementation Guide"}, "rootItem": {"href": "/mdr/root/sendig/datasets/DM/variables/SBSTRAIN", "title": "Version-agnostic anchor resource for SENDIG variable DM.SBSTRAIN", "type": "Root Data Element"}, "self": {"href": "/mdr/sendig/ar-1-0/datasets/DM/variables/SBSTRAIN", "title": "Strain/Substrain Details", "type": "SDTM Dataset Variable"}}, "core": "Perm", "description": "Not used for rats and mice. Free-text field that allows the sponsor to enter further details qualifying the SPECIES and/or STRAIN, depending on the level to which these variables were defined. Examples include the description of a specific genetic alteration, country of origin for non-human primates, details related to coat color (e.g., white and red designations for New Zealand Rabbits), and important animal husbandry information (e.g., \"SPF\", \"BR\", \"VAF\").", "label": "Strain/Substrain Details", "name": "SBSTRAIN", "ordinal": "19", "role": "Variable Qualifier", "simpleDatatype": "Char"}, {"_links": {"modelDatasetVariable": {"href": "/mdr/sdtm/1-8/datasets/DM/variables/ARMCD", "title": "Planned Arm Code", "type": "SDTM Dataset Variable"}, "parentDataset": {"href": "/mdr/sendig/ar-1-0/datasets/DM", "title": "Demographics", "type": "SDTM Dataset"}, "parentProduct": {"href": "/mdr/sendig/ar-1-0", "title": "Standard for Exchange of Nonclinical Data Implementation Guide: Animal Rule Version 1.0 (Final)", "type": "Implementation Guide"}, "rootItem": {"href": "/mdr/root/sendig/datasets/DM/variables/ARMCD", "title": "Version-agnostic anchor resource for SENDIG variable DM.ARMCD", "type": "Root Data Element"}, "self": {"href": "/mdr/sendig/ar-1-0/datasets/DM/variables/ARMCD", "title": "Planned Arm Code", "type": "SDTM Dataset Variable"}}, "core": "Exp", "description": "Short name for ARM (may be up to 20 characters) used for sorting and programming. Should be populated when arms have been defined in the TA domain.", "label": "Planned Arm Code", "name": "ARMCD", "ordinal": "20", "role": "Record Qualifier", "simpleDatatype": "Char"}, {"_links": {"modelDatasetVariable": {"href": "/mdr/sdtm/1-8/datasets/DM/variables/ARM", "title": "Description of Planned Arm", "type": "SDTM Dataset Variable"}, "parentDataset": {"href": "/mdr/sendig/ar-1-0/datasets/DM", "title": "Demographics", "type": "SDTM Dataset"}, "parentProduct": {"href": "/mdr/sendig/ar-1-0", "title": "Standard for Exchange of Nonclinical Data Implementation Guide: Animal Rule Version 1.0 (Final)", "type": "Implementation Guide"}, "rootItem": {"href": "/mdr/root/sendig/datasets/DM/variables/ARM", "title": "Version-agnostic anchor resource for SENDIG variable DM.ARM", "type": "Root Data Element"}, "self": {"href": "/mdr/sendig/ar-1-0/datasets/DM/variables/ARM", "title": "Description of Planned Arm", "type": "SDTM Dataset Variable"}}, "core": "Perm", "description": "Descriptive name given to a specific trial arm (e.g., \"Low Dose\", \"Mid Dose\", \"10 mg/kg/day dose\", \"Third Arm\") to which the subject was assigned.", "label": "Description of Planned Arm", "name": "ARM", "ordinal": "21", "role": "Synonym Qualifier", "simpleDatatype": "Char"}, {"_links": {"modelDatasetVariable": {"href": "/mdr/sdtm/1-8/datasets/DM/variables/SETCD", "title": "Set Code", "type": "SDTM Dataset Variable"}, "parentDataset": {"href": "/mdr/sendig/ar-1-0/datasets/DM", "title": "Demographics", "type": "SDTM Dataset"}, "parentProduct": {"href": "/mdr/sendig/ar-1-0", "title": "Standard for Exchange of Nonclinical Data Implementation Guide: Animal Rule Version 1.0 (Final)", "type": "Implementation Guide"}, "rootItem": {"href": "/mdr/root/sendig/datasets/DM/variables/SETCD", "title": "Version-agnostic anchor resource for SENDIG variable DM.SETCD", "type": "Root Data Element"}, "self": {"href": "/mdr/sendig/ar-1-0/datasets/DM/variables/SETCD", "title": "Set Code", "type": "SDTM Dataset Variable"}}, "core": "Req", "description": "Short name of a specific trial set to which the subject was assigned, as defined by the sponsor. Maximum of 8 characters. This represents the Trial Set for which parameters are being submitted.", "label": "Set Code", "name": "SETCD", "ordinal": "22", "role": "Record Qualifier", "simpleDatatype": "Char"}], "description": "A special-purpose domain that includes a set of essential standard variables that describe each subject in a clinical study. It is the parent domain for all other observations for human clinical subjects. (Source: CDISC Controlled Terminology, SDOMAIN, C49572, 2018-06-29)", "label": "Demographics", "name": "DM", "ordinal": "1"}], "description": "This SDTM class contains a set of domains which do not conform to the Findings, Events or Interventions observation classes. The domains included are DM, CO, SE and SV. (Source: CDISC Controlled Terminology, GNRLOBSC, C103377, 2018-06-29)", "label": "Special-Purpose Datasets", "name": "Special-Purpose", "ordinal": "2"}, {"_links": {"modelClass": {"href": "/mdr/sdtm/1-8/classes/Interventions", "title": "Interventions Observation Class", "type": "Class"}, "parentClass": {"href": "/mdr/sendig/ar-1-0/classes/GeneralObservations", "title": "General Observation Class", "type": "Class"}, "parentProduct": {"href": "/mdr/sendig/ar-1-0", "title": "Standard for Exchange of Nonclinical Data Implementation Guide: Animal Rule Version 1.0 (Final)", "type": "Implementation Guide"}, "self": {"href": "/mdr/sendig/ar-1-0/classes/Interventions", "title": "Interventions Observation Class", "type": "Class"}}, "datasets": [{"_links": {"parentClass": {"href": "/mdr/sendig/ar-1-0/classes/Interventions", "title": "Interventions Observation Class", "type": "Class"}, "parentProduct": {"href": "/mdr/sendig/ar-1-0", "title": "Standard for Exchange of Nonclinical Data Implementation Guide: Animal Rule Version 1.0 (Final)", "type": "Implementation Guide"}, "self": {"href": "/mdr/sendig/ar-1-0/datasets/CM", "title": "Concomitant/Prior Medications", "type": "SDTM Dataset"}}, "datasetStructure": "One record per constant dosing interval per treatment per subject", "datasetVariables": [{"_links": {"modelClassVariable": {"href": "/mdr/sdtm/1-8/classes/GeneralObservations/variables/STUDYID", "title": "Study Identifier", "type": "Class Variable"}, "parentDataset": {"href": "/mdr/sendig/ar-1-0/datasets/CM", "title": "Concomitant/Prior Medications", "type": "SDTM Dataset"}, "parentProduct": {"href": "/mdr/sendig/ar-1-0", "title": "Standard for Exchange of Nonclinical Data Implementation Guide: Animal Rule Version 1.0 (Final)", "type": "Implementation Guide"}, "rootItem": {"href": "/mdr/root/sendig/datasets/CM/variables/STUDYID", "title": "Version-agnostic anchor resource for SENDIG variable CM.STUDYID", "type": "Root Data Element"}, "self": {"href": "/mdr/sendig/ar-1-0/datasets/CM/variables/STUDYID", "title": "Study Identifier", "type": "SDTM Dataset Variable"}}, "core": "Req", "description": "Unique identifier for a study.", "label": "Study Identifier", "name": "STUDYID", "ordinal": "1", "role": "Identifier", "simpleDatatype": "Char"}, {"_links": {"modelClassVariable": {"href": "/mdr/sdtm/1-8/classes/GeneralObservations/variables/DOMAIN", "title": "Domain Abbreviation", "type": "Class Variable"}, "parentDataset": {"href": "/mdr/sendig/ar-1-0/datasets/CM", "title": "Concomitant/Prior Medications", "type": "SDTM Dataset"}, "parentProduct": {"href": "/mdr/sendig/ar-1-0", "title": "Standard for Exchange of Nonclinical Data Implementation Guide: Animal Rule Version 1.0 (Final)", "type": "Implementation Guide"}, "rootItem": {"href": "/mdr/root/sendig/datasets/CM/variables/DOMAIN", "title": "Version-agnostic anchor resource for SENDIG variable CM.DOMAIN", "type": "Root Data Element"}, "self": {"href": "/mdr/sendig/ar-1-0/datasets/CM/variables/DOMAIN", "title": "Domain Abbreviation", "type": "SDTM Dataset Variable"}}, "core": "Req", "description": "Two-character abbreviation for the domain.", "label": "Domain Abbreviation", "name": "DOMAIN", "ordinal": "2", "role": "Identifier", "simpleDatatype": "Char", "valueList": ["CM"]}, {"_links": {"modelClassVariable": {"href": "/mdr/sdtm/1-8/classes/GeneralObservations/variables/USUBJID", "title": "Unique Subject Identifier", "type": "Class Variable"}, "parentDataset": {"href": "/mdr/sendig/ar-1-0/datasets/CM", "title": "Concomitant/Prior Medications", "type": "SDTM Dataset"}, "parentProduct": {"href": "/mdr/sendig/ar-1-0", "title": "Standard for Exchange of Nonclinical Data Implementation Guide: Animal Rule Version 1.0 (Final)", "type": "Implementation Guide"}, "rootItem": {"href": "/mdr/root/sendig/datasets/CM/variables/USUBJID", "title": "Version-agnostic anchor resource for SENDIG variable CM.USUBJID", "type": "Root Data Element"}, "self": {"href": "/mdr/sendig/ar-1-0/datasets/CM/variables/USUBJID", "title": "Unique Subject Identifier", "type": "SDTM Dataset Variable"}}, "core": "Req", "description": "Identifier used to uniquely identify a subject across all studies for all applications or submissions involving the product.", "label": "Unique Subject Identifier", "name": "USUBJID", "ordinal": "3", "role": "Identifier", "simpleDatatype": "Char"}, {"_links": {"modelClassVariable": {"href": "/mdr/sdtm/1-8/classes/GeneralObservations/variables/--SEQ", "title": "Sequence Number", "type": "Class Variable"}, "parentDataset": {"href": "/mdr/sendig/ar-1-0/datasets/CM", "title": "Concomitant/Prior Medications", "type": "SDTM Dataset"}, "parentProduct": {"href": "/mdr/sendig/ar-1-0", "title": "Standard for Exchange of Nonclinical Data Implementation Guide: Animal Rule Version 1.0 (Final)", "type": "Implementation Guide"}, "rootItem": {"href": "/mdr/root/sendig/datasets/CM/variables/CMSEQ", "title": "Version-agnostic anchor resource for SENDIG variable CM.CMSEQ", "type": "Root Data Element"}, "self": {"href": "/mdr/sendig/ar-1-0/datasets/CM/variables/CMSEQ", "title": "Sequence Number", "type": "SDTM Dataset Variable"}}, "core": "Req", "description": "Sequence number to ensure uniqueness of subject records within a domain. May be any valid number.", "label": "Sequence Number", "name": "CMSEQ", "ordinal": "4", "role": "Identifier", "simpleDatatype": "Num"}, {"_links": {"modelClassVariable": {"href": "/mdr/sdtm/1-8/classes/GeneralObservations/variables/--GRPID", "title": "Group ID", "type": "Class Variable"}, "parentDataset": {"href": "/mdr/sendig/ar-1-0/datasets/CM", "title": "Concomitant/Prior Medications", "type": "SDTM Dataset"}, "parentProduct": {"href": "/mdr/sendig/ar-1-0", "title": "Standard for Exchange of Nonclinical Data Implementation Guide: Animal Rule Version 1.0 (Final)", "type": "Implementation Guide"}, "rootItem": {"href": "/mdr/root/sendig/datasets/CM/variables/CMGRPID", "title": "Version-agnostic anchor resource for SENDIG variable CM.CMGRPID", "type": "Root Data Element"}, "self": {"href": "/mdr/sendig/ar-1-0/datasets/CM/variables/CMGRPID", "title": "Group ID", "type": "SDTM Dataset Variable"}}, "core": "Perm", "description": "Used to tie together a block of related records in a single domain for a subject.", "label": "Group ID", "name": "CMGRPID", "ordinal": "5", "role": "Identifier", "simpleDatatype": "Char"}, {"_links": {"modelClassVariable": {"href": "/mdr/sdtm/1-8/classes/GeneralObservations/variables/--SPID", "title": "Sponsor-Defined Identifier", "type": "Class Variable"}, "parentDataset": {"href": "/mdr/sendig/ar-1-0/datasets/CM", "title": "Concomitant/Prior Medications", "type": "SDTM Dataset"}, "parentProduct": {"href": "/mdr/sendig/ar-1-0", "title": "Standard for Exchange of Nonclinical Data Implementation Guide: Animal Rule Version 1.0 (Final)", "type": "Implementation Guide"}, "rootItem": {"href": "/mdr/root/sendig/datasets/CM/variables/CMSPID", "title": "Version-agnostic anchor resource for SENDIG variable CM.CMSPID", "type": "Root Data Element"}, "self": {"href": "/mdr/sendig/ar-1-0/datasets/CM/variables/CMSPID", "title": "Sponsor-Defined Identifier", "type": "SDTM Dataset Variable"}}, "core": "Perm", "description": "Sponsor-defined reference number. Example: a line identifier or record identifier defined in the sponsor's operational database.", "label": "Sponsor-Defined Identifier", "name": "CMSPID", "ordinal": "6", "role": "Identifier", "simpleDatatype": "Char"}, {"_links": {"modelClassVariable": {"href": "/mdr/sdtm/1-8/classes/Interventions/variables/--TRT", "title": "Name of Treatment", "type": "Class Variable"}, "parentDataset": {"href": "/mdr/sendig/ar-1-0/datasets/CM", "title": "Concomitant/Prior Medications", "type": "SDTM Dataset"}, "parentProduct": {"href": "/mdr/sendig/ar-1-0", "title": "Standard for Exchange of Nonclinical Data Implementation Guide: Animal Rule Version 1.0 (Final)", "type": "Implementation Guide"}, "rootItem": {"href": "/mdr/root/sendig/datasets/CM/variables/CMTRT", "title": "Version-agnostic anchor resource for SENDIG variable CM.CMTRT", "type": "Root Data Element"}, "self": {"href": "/mdr/sendig/ar-1-0/datasets/CM/variables/CMTRT", "title": "Reported Name of Drug, Med, or Therapy", "type": "SDTM Dataset Variable"}}, "core": "Req", "description": "Verbatim medication name as recorded.", "label": "Reported Name of Drug, Med, or Therapy", "name": "CMTRT", "ordinal": "7", "role": "Topic", "simpleDatatype": "Char"}, {"_links": {"modelClassVariable": {"href": "/mdr/sdtm/1-8/classes/Interventions/variables/--CAT", "title": "Category", "type": "Class Variable"}, "parentDataset": {"href": "/mdr/sendig/ar-1-0/datasets/CM", "title": "Concomitant/Prior Medications", "type": "SDTM Dataset"}, "parentProduct": {"href": "/mdr/sendig/ar-1-0", "title": "Standard for Exchange of Nonclinical Data Implementation Guide: Animal Rule Version 1.0 (Final)", "type": "Implementation Guide"}, "rootItem": {"href": "/mdr/root/sendig/datasets/CM/variables/CMCAT", "title": "Version-agnostic anchor resource for SENDIG variable CM.CMCAT", "type": "Root Data Element"}, "self": {"href": "/mdr/sendig/ar-1-0/datasets/CM/variables/CMCAT", "title": "Category for Medication", "type": "SDTM Dataset Variable"}}, "core": "Perm", "description": "Used to define a category of medications/treatment. Examples: \"PRIOR\", \"CONCOMITANT\", \"ANTI-DIARRHEA MEDICATION\", \"GENERAL CONMED\".", "label": "Category for Medication", "name": "CMCAT", "ordinal": "8", "role": "Grouping Qualifier", "simpleDatatype": "Char"}, {"_links": {"modelClassVariable": {"href": "/mdr/sdtm/1-8/classes/Interventions/variables/--SCAT", "title": "Subcategory", "type": "Class Variable"}, "parentDataset": {"href": "/mdr/sendig/ar-1-0/datasets/CM", "title": "Concomitant/Prior Medications", "type": "SDTM Dataset"}, "parentProduct": {"href": "/mdr/sendig/ar-1-0", "title": "Standard for Exchange of Nonclinical Data Implementation Guide: Animal Rule Version 1.0 (Final)", "type": "Implementation Guide"}, "rootItem": {"href": "/mdr/root/sendig/datasets/CM/variables/CMSCAT", "title": "Version-agnostic anchor resource for SENDIG variable CM.CMSCAT", "type": "Root Data Element"}, "self": {"href": "/mdr/sendig/ar-1-0/datasets/CM/variables/CMSCAT", "title": "Subcategory for Medication", "type": "SDTM Dataset Variable"}}, "core": "Perm", "description": "A further categorization of medications/treatment. Examples: \"ANALGESIC\", \"TOPICAL ANTIMICROBIAL\", \"ANTIHISTAMINE\".", "label": "Subcategory for Medication", "name": "CMSCAT", "ordinal": "9", "role": "Grouping Qualifier", "simpleDatatype": "Char"}, {"_links": {"modelClassVariable": {"href": "/mdr/sdtm/1-8/classes/Interventions/variables/--INDC", "title": "Indication", "type": "Class Variable"}, "parentDataset": {"href": "/mdr/sendig/ar-1-0/datasets/CM", "title": "Concomitant/Prior Medications", "type": "SDTM Dataset"}, "parentProduct": {"href": "/mdr/sendig/ar-1-0", "title": "Standard for Exchange of Nonclinical Data Implementation Guide: Animal Rule Version 1.0 (Final)", "type": "Implementation Guide"}, "rootItem": {"href": "/mdr/root/sendig/datasets/CM/variables/CMINDC", "title": "Version-agnostic anchor resource for SENDIG variable CM.CMINDC", "type": "Root Data Element"}, "self": {"href": "/mdr/sendig/ar-1-0/datasets/CM/variables/CMINDC", "title": "Indication", "type": "SDTM Dataset Variable"}}, "core": "Perm", "description": "Denotes why a medication was administered. Examples: \"DIARRHEA\", \"SUPERFICIAL WOUND\".", "label": "Indication", "name": "CMINDC", "ordinal": "10", "role": "Record Qualifier", "simpleDatatype": "Char"}, {"_links": {"modelClassVariable": {"href": "/mdr/sdtm/1-8/classes/Interventions/variables/--DOSE", "title": "Dose", "type": "Class Variable"}, "parentDataset": {"href": "/mdr/sendig/ar-1-0/datasets/CM", "title": "Concomitant/Prior Medications", "type": "SDTM Dataset"}, "parentProduct": {"href": "/mdr/sendig/ar-1-0", "title": "Standard for Exchange of Nonclinical Data Implementation Guide: Animal Rule Version 1.0 (Final)", "type": "Implementation Guide"}, "rootItem": {"href": "/mdr/root/sendig/datasets/CM/variables/CMDOSE", "title": "Version-agnostic anchor resource for SENDIG variable CM.CMDOSE", "type": "Root Data Element"}, "self": {"href": "/mdr/sendig/ar-1-0/datasets/CM/variables/CMDOSE", "title": "Dose per Administration", "type": "SDTM Dataset Variable"}}, "core": "Perm", "description": "Amount of CMTRT administered. Not populated when CMDOSTXT is populated.", "label": "Dose per Administration", "name": "CMDOSE", "ordinal": "11", "role": "Record Qualifier", "simpleDatatype": "Num"}, {"_links": {"modelClassVariable": {"href": "/mdr/sdtm/1-8/classes/Interventions/variables/--DOSTXT", "title": "Dose Description", "type": "Class Variable"}, "parentDataset": {"href": "/mdr/sendig/ar-1-0/datasets/CM", "title": "Concomitant/Prior Medications", "type": "SDTM Dataset"}, "parentProduct": {"href": "/mdr/sendig/ar-1-0", "title": "Standard for Exchange of Nonclinical Data Implementation Guide: Animal Rule Version 1.0 (Final)", "type": "Implementation Guide"}, "rootItem": {"href": "/mdr/root/sendig/datasets/CM/variables/CMDOSTXT", "title": "Version-agnostic anchor resource for SENDIG variable CM.CMDOSTXT", "type": "Root Data Element"}, "self": {"href": "/mdr/sendig/ar-1-0/datasets/CM/variables/CMDOSTXT", "title": "Dose Description", "type": "SDTM Dataset Variable"}}, "core": "Perm", "description": "Dosing amounts or a range of dosing information collected in text form. Units may be stored in CMDOSU. Examples: \"200-400\", \"15-20\". Not populated when CMDOSE is populated.", "label": "Dose Description", "name": "CMDOSTXT", "ordinal": "12", "role": "Record Qualifier", "simpleDatatype": "Char"}, {"_links": {"codelist": [{"href": "/mdr/root/ct/sendct/codelists/C71620", "title": "Version-agnostic anchor resource for codelist C71620", "type": "Root Value Domain"}], "modelClassVariable": {"href": "/mdr/sdtm/1-8/classes/Interventions/variables/--DOSU", "title": "Dose Units", "type": "Class Variable"}, "parentDataset": {"href": "/mdr/sendig/ar-1-0/datasets/CM", "title": "Concomitant/Prior Medications", "type": "SDTM Dataset"}, "parentProduct": {"href": "/mdr/sendig/ar-1-0", "title": "Standard for Exchange of Nonclinical Data Implementation Guide: Animal Rule Version 1.0 (Final)", "type": "Implementation Guide"}, "rootItem": {"href": "/mdr/root/sendig/datasets/CM/variables/CMDOSU", "title": "Version-agnostic anchor resource for SENDIG variable CM.CMDOSU", "type": "Root Data Element"}, "self": {"href": "/mdr/sendig/ar-1-0/datasets/CM/variables/CMDOSU", "title": "Dose Units", "type": "SDTM Dataset Variable"}}, "core": "Perm", "description": "Units for CMDOSE, CMDOSTOT, or CMDOSTXT. Examples: \"ng\", \"mg\", or \"mg/kg\".", "label": "Dose Units", "name": "CMDOSU", "ordinal": "13", "role": "Variable Qualifier", "simpleDatatype": "Char"}, {"_links": {"codelist": [{"href": "/mdr/root/ct/sendct/codelists/C66726", "title": "Version-agnostic anchor resource for codelist C66726", "type": "Root Value Domain"}], "modelClassVariable": {"href": "/mdr/sdtm/1-8/classes/Interventions/variables/--DOSFRM", "title": "Dose Form", "type": "Class Variable"}, "parentDataset": {"href": "/mdr/sendig/ar-1-0/datasets/CM", "title": "Concomitant/Prior Medications", "type": "SDTM Dataset"}, "parentProduct": {"href": "/mdr/sendig/ar-1-0", "title": "Standard for Exchange of Nonclinical Data Implementation Guide: Animal Rule Version 1.0 (Final)", "type": "Implementation Guide"}, "rootItem": {"href": "/mdr/root/sendig/datasets/CM/variables/CMDOSFRM", "title": "Version-agnostic anchor resource for SENDIG variable CM.CMDOSFRM", "type": "Root Data Element"}, "self": {"href": "/mdr/sendig/ar-1-0/datasets/CM/variables/CMDOSFRM", "title": "Dose Form", "type": "SDTM Dataset Variable"}}, "core": "Perm", "description": "Dose form for CMTRT. Examples: \"TABLET\", \"LOTION\".", "label": "Dose Form", "name": "CMDOSFRM", "ordinal": "14", "role": "Variable Qualifier", "simpleDatatype": "Char"}, {"_links": {"codelist": [{"href": "/mdr/root/ct/sendct/codelists/C71113", "title": "Version-agnostic anchor resource for codelist C71113", "type": "Root Value Domain"}], "modelClassVariable": {"href": "/mdr/sdtm/1-8/classes/Interventions/variables/--DOSFRQ", "title": "Dosing Frequency per Interval", "type": "Class Variable"}, "parentDataset": {"href": "/mdr/sendig/ar-1-0/datasets/CM", "title": "Concomitant/Prior Medications", "type": "SDTM Dataset"}, "parentProduct": {"href": "/mdr/sendig/ar-1-0", "title": "Standard for Exchange of Nonclinical Data Implementation Guide: Animal Rule Version 1.0 (Final)", "type": "Implementation Guide"}, "rootItem": {"href": "/mdr/root/sendig/datasets/CM/variables/CMDOSFRQ", "title": "Version-agnostic anchor resource for SENDIG variable CM.CMDOSFRQ", "type": "Root Data Element"}, "self": {"href": "/mdr/sendig/ar-1-0/datasets/CM/variables/CMDOSFRQ", "title": "Dosing Frequency per Interval", "type": "SDTM Dataset Variable"}}, "core": "Perm", "description": "Usually expressed as the number of repeated administrations of CMDOSE within a specific time period. Examples: \"BID\" (twice daily), \"Q12H\" (every 12 hours).", "label": "Dosing Frequency per Interval", "name": "CMDOSFRQ", "ordinal": "15", "role": "Variable Qualifier", "simpleDatatype": "Char"}, {"_links": {"modelClassVariable": {"href": "/mdr/sdtm/1-8/classes/Interventions/variables/--DOSTOT", "title": "Total Daily Dose", "type": "Class Variable"}, "parentDataset": {"href": "/mdr/sendig/ar-1-0/datasets/CM", "title": "Concomitant/Prior Medications", "type": "SDTM Dataset"}, "parentProduct": {"href": "/mdr/sendig/ar-1-0", "title": "Standard for Exchange of Nonclinical Data Implementation Guide: Animal Rule Version 1.0 (Final)", "type": "Implementation Guide"}, "rootItem": {"href": "/mdr/root/sendig/datasets/CM/variables/CMDOSTOT", "title": "Version-agnostic anchor resource for SENDIG variable CM.CMDOSTOT", "type": "Root Data Element"}, "self": {"href": "/mdr/sendig/ar-1-0/datasets/CM/variables/CMDOSTOT", "title": "Total Daily Dose", "type": "SDTM Dataset Variable"}}, "core": "Perm", "description": "Total daily dose of CMTRT using the units in CMDOSU. Used when dosing is collected as Total Daily Dose. Total dose over a period other than day could be recorded in a separate Supplemental Qualifier variable.", "label": "Total Daily Dose", "name": "CMDOSTOT", "ordinal": "16", "role": "Record Qualifier", "simpleDatatype": "Num"}, {"_links": {"modelClassVariable": {"href": "/mdr/sdtm/1-8/classes/Interventions/variables/--DOSRGM", "title": "Intended Dose Regimen", "type": "Class Variable"}, "parentDataset": {"href": "/mdr/sendig/ar-1-0/datasets/CM", "title": "Concomitant/Prior Medications", "type": "SDTM Dataset"}, "parentProduct": {"href": "/mdr/sendig/ar-1-0", "title": "Standard for Exchange of Nonclinical Data Implementation Guide: Animal Rule Version 1.0 (Final)", "type": "Implementation Guide"}, "rootItem": {"href": "/mdr/root/sendig/datasets/CM/variables/CMDOSRGM", "title": "Version-agnostic anchor resource for SENDIG variable CM.CMDOSRGM", "type": "Root Data Element"}, "self": {"href": "/mdr/sendig/ar-1-0/datasets/CM/variables/CMDOSRGM", "title": "Intended Dose Regimen", "type": "SDTM Dataset Variable"}}, "core": "Perm", "description": "Text description of the (intended) schedule or regimen for the intervention. Example: \"TWO WEEKS ON, TWO WEEKS OFF\".", "label": "Intended Dose Regimen", "name": "CMDOSRGM", "ordinal": "17", "role": "Variable Qualifier", "simpleDatatype": "Char"}, {"_links": {"codelist": [{"href": "/mdr/root/ct/sendct/codelists/C66729", "title": "Version-agnostic anchor resource for codelist C66729", "type": "Root Value Domain"}], "modelClassVariable": {"href": "/mdr/sdtm/1-8/classes/Interventions/variables/--ROUTE", "title": "Route of Administration", "type": "Class Variable"}, "parentDataset": {"href": "/mdr/sendig/ar-1-0/datasets/CM", "title": "Concomitant/Prior Medications", "type": "SDTM Dataset"}, "parentProduct": {"href": "/mdr/sendig/ar-1-0", "title": "Standard for Exchange of Nonclinical Data Implementation Guide: Animal Rule Version 1.0 (Final)", "type": "Implementation Guide"}, "rootItem": {"href": "/mdr/root/sendig/datasets/CM/variables/CMROUTE", "title": "Version-agnostic anchor resource for SENDIG variable CM.CMROUTE", "type": "Root Data Element"}, "self": {"href": "/mdr/sendig/ar-1-0/datasets/CM/variables/CMROUTE", "title": "Route of Administration", "type": "SDTM Dataset Variable"}}, "core": "Perm", "description": "Route of administration for the intervention. Examples: \"ORAL\", \"INTRAVENOUS\".", "label": "Route of Administration", "name": "CMROUTE", "ordinal": "18", "role": "Variable Qualifier", "simpleDatatype": "Char"}, {"_links": {"codelist": [{"href": "/mdr/root/ct/sendct/codelists/C66742", "title": "Version-agnostic anchor resource for codelist C66742", "type": "Root Value Domain"}], "modelClassVariable": {"href": "/mdr/sdtm/1-8/classes/Interventions/variables/--RSTIND", "title": "Restraint Indicator", "type": "Class Variable"}, "parentDataset": {"href": "/mdr/sendig/ar-1-0/datasets/CM", "title": "Concomitant/Prior Medications", "type": "SDTM Dataset"}, "parentProduct": {"href": "/mdr/sendig/ar-1-0", "title": "Standard for Exchange of Nonclinical Data Implementation Guide: Animal Rule Version 1.0 (Final)", "type": "Implementation Guide"}, "rootItem": {"href": "/mdr/root/sendig/datasets/CM/variables/CMRSTIND", "title": "Version-agnostic anchor resource for SENDIG variable CM.CMRSTIND", "type": "Root Data Element"}, "self": {"href": "/mdr/sendig/ar-1-0/datasets/CM/variables/CMRSTIND", "title": "Restraint Indicator", "type": "SDTM Dataset Variable"}}, "core": "Exp", "description": "An indicator as to whether the subject was restrained during the intervention period.", "label": "Restraint Indicator", "name": "CMRSTIND", "ordinal": "19", "role": "Record Qualifier", "simpleDatatype": "Char"}, {"_links": {"codelist": [{"href": "/mdr/root/ct/sendct/codelists/C158123", "title": "Version-agnostic anchor resource for codelist C158123", "type": "Root Value Domain"}], "modelClassVariable": {"href": "/mdr/sdtm/1-8/classes/Interventions/variables/--RSTMOD", "title": "Restraint Mode", "type": "Class Variable"}, "parentDataset": {"href": "/mdr/sendig/ar-1-0/datasets/CM", "title": "Concomitant/Prior Medications", "type": "SDTM Dataset"}, "parentProduct": {"href": "/mdr/sendig/ar-1-0", "title": "Standard for Exchange of Nonclinical Data Implementation Guide: Animal Rule Version 1.0 (Final)", "type": "Implementation Guide"}, "rootItem": {"href": "/mdr/root/sendig/datasets/CM/variables/CMRSTMOD", "title": "Version-agnostic anchor resource for SENDIG variable CM.CMRSTMOD", "type": "Root Data Element"}, "self": {"href": "/mdr/sendig/ar-1-0/datasets/CM/variables/CMRSTMOD", "title": "Restraint Mode", "type": "SDTM Dataset Variable"}}, "core": "Exp", "description": "A description of whether the restraint was physical and/or chemical.", "label": "Restraint Mode", "name": "CMRSTMOD", "ordinal": "20", "role": "Record Qualifier", "simpleDatatype": "Char"}, {"_links": {"modelClassVariable": {"href": "/mdr/sdtm/1-8/classes/GeneralObservations/variables/--STDTC", "title": "Start Date/Time of Observation", "type": "Class Variable"}, "parentDataset": {"href": "/mdr/sendig/ar-1-0/datasets/CM", "title": "Concomitant/Prior Medications", "type": "SDTM Dataset"}, "parentProduct": {"href": "/mdr/sendig/ar-1-0", "title": "Standard for Exchange of Nonclinical Data Implementation Guide: Animal Rule Version 1.0 (Final)", "type": "Implementation Guide"}, "rootItem": {"href": "/mdr/root/sendig/datasets/CM/variables/CMSTDTC", "title": "Version-agnostic anchor resource for SENDIG variable CM.CMSTDTC", "type": "Root Data Element"}, "self": {"href": "/mdr/sendig/ar-1-0/datasets/CM/variables/CMSTDTC", "title": "Start Date/Time of Medication", "type": "SDTM Dataset Variable"}}, "core": "Perm", "describedValueDomain": "ISO 8601", "description": "Start date/time of the medication administration represented in ISO 8601 character format.", "label": "Start Date/Time of Medication", "name": "CMSTDTC", "ordinal": "21", "role": "Timing", "simpleDatatype": "Char"}, {"_links": {"modelClassVariable": {"href": "/mdr/sdtm/1-8/classes/GeneralObservations/variables/--ENDTC", "title": "End Date/Time of Observation", "type": "Class Variable"}, "parentDataset": {"href": "/mdr/sendig/ar-1-0/datasets/CM", "title": "Concomitant/Prior Medications", "type": "SDTM Dataset"}, "parentProduct": {"href": "/mdr/sendig/ar-1-0", "title": "Standard for Exchange of Nonclinical Data Implementation Guide: Animal Rule Version 1.0 (Final)", "type": "Implementation Guide"}, "rootItem": {"href": "/mdr/root/sendig/datasets/CM/variables/CMENDTC", "title": "Version-agnostic anchor resource for SENDIG variable CM.CMENDTC", "type": "Root Data Element"}, "self": {"href": "/mdr/sendig/ar-1-0/datasets/CM/variables/CMENDTC", "title": "End Date/Time of Medication", "type": "SDTM Dataset Variable"}}, "core": "Perm", "describedValueDomain": "ISO 8601", "description": "End date/time of the medication administration represented in ISO 8601 character format.", "label": "End Date/Time of Medication", "name": "CMENDTC", "ordinal": "22", "role": "Timing", "simpleDatatype": "Char"}, {"_links": {"modelClassVariable": {"href": "/mdr/sdtm/1-8/classes/GeneralObservations/variables/--STDY", "title": "Study Day of Start of Observation", "type": "Class Variable"}, "parentDataset": {"href": "/mdr/sendig/ar-1-0/datasets/CM", "title": "Concomitant/Prior Medications", "type": "SDTM Dataset"}, "parentProduct": {"href": "/mdr/sendig/ar-1-0", "title": "Standard for Exchange of Nonclinical Data Implementation Guide: Animal Rule Version 1.0 (Final)", "type": "Implementation Guide"}, "rootItem": {"href": "/mdr/root/sendig/datasets/CM/variables/CMSTDY", "title": "Version-agnostic anchor resource for SENDIG variable CM.CMSTDY", "type": "Root Data Element"}, "self": {"href": "/mdr/sendig/ar-1-0/datasets/CM/variables/CMSTDY", "title": "Study Day of Start of Medication", "type": "SDTM Dataset Variable"}}, "core": "Perm", "description": "Study day of start of medication relative to the sponsor-defined RFSTDTC.", "label": "Study Day of Start of Medication", "name": "CMSTDY", "ordinal": "23", "role": "Timing", "simpleDatatype": "Num"}, {"_links": {"modelClassVariable": {"href": "/mdr/sdtm/1-8/classes/GeneralObservations/variables/--ENDY", "title": "Study Day of End of Observation", "type": "Class Variable"}, "parentDataset": {"href": "/mdr/sendig/ar-1-0/datasets/CM", "title": "Concomitant/Prior Medications", "type": "SDTM Dataset"}, "parentProduct": {"href": "/mdr/sendig/ar-1-0", "title": "Standard for Exchange of Nonclinical Data Implementation Guide: Animal Rule Version 1.0 (Final)", "type": "Implementation Guide"}, "rootItem": {"href": "/mdr/root/sendig/datasets/CM/variables/CMENDY", "title": "Version-agnostic anchor resource for SENDIG variable CM.CMENDY", "type": "Root Data Element"}, "self": {"href": "/mdr/sendig/ar-1-0/datasets/CM/variables/CMENDY", "title": "Study Day of End of Medication", "type": "SDTM Dataset Variable"}}, "core": "Perm", "description": "Study day of end of medication relative to the sponsor-defined RFSTDTC.", "label": "Study Day of End of Medication", "name": "CMENDY", "ordinal": "24", "role": "Timing", "simpleDatatype": "Num"}, {"_links": {"modelClassVariable": {"href": "/mdr/sdtm/1-8/classes/GeneralObservations/variables/--NOMDY", "title": "Nominal Study Day for Tabulations", "type": "Class Variable"}, "parentDataset": {"href": "/mdr/sendig/ar-1-0/datasets/CM", "title": "Concomitant/Prior Medications", "type": "SDTM Dataset"}, "parentProduct": {"href": "/mdr/sendig/ar-1-0", "title": "Standard for Exchange of Nonclinical Data Implementation Guide: Animal Rule Version 1.0 (Final)", "type": "Implementation Guide"}, "rootItem": {"href": "/mdr/root/sendig/datasets/CM/variables/CMNOMDY", "title": "Version-agnostic anchor resource for SENDIG variable CM.CMNOMDY", "type": "Root Data Element"}, "self": {"href": "/mdr/sendig/ar-1-0/datasets/CM/variables/CMNOMDY", "title": "Nominal Study Day for Tabulations", "type": "SDTM Dataset Variable"}}, "core": "Exp", "description": "Nominal study day used for grouping records for observations that may occur on different days into a single reported study day. Should be an integer.", "label": "Nominal Study Day for Tabulations", "name": "CMNOMDY", "ordinal": "25", "role": "Timing", "simpleDatatype": "Num"}, {"_links": {"modelClassVariable": {"href": "/mdr/sdtm/1-8/classes/GeneralObservations/variables/--NOMLBL", "title": "Label for Nominal Study Day", "type": "Class Variable"}, "parentDataset": {"href": "/mdr/sendig/ar-1-0/datasets/CM", "title": "Concomitant/Prior Medications", "type": "SDTM Dataset"}, "parentProduct": {"href": "/mdr/sendig/ar-1-0", "title": "Standard for Exchange of Nonclinical Data Implementation Guide: Animal Rule Version 1.0 (Final)", "type": "Implementation Guide"}, "rootItem": {"href": "/mdr/root/sendig/datasets/CM/variables/CMNOMLBL", "title": "Version-agnostic anchor resource for SENDIG variable CM.CMNOMLBL", "type": "Root Data Element"}, "self": {"href": "/mdr/sendig/ar-1-0/datasets/CM/variables/CMNOMLBL", "title": "Label for Nominal Study Day", "type": "SDTM Dataset Variable"}}, "core": "Perm", "description": "A label for a given value of CMNOMDY as presented in the study report. Examples: \"Week 4\", \"Day 28\".", "label": "Label for Nominal Study Day", "name": "CMNOMLBL", "ordinal": "26", "role": "Timing", "simpleDatatype": "Char"}, {"_links": {"modelClassVariable": {"href": "/mdr/sdtm/1-8/classes/GeneralObservations/variables/--XSTDY", "title": "Start Day of Obs Relative to Exposure", "type": "Class Variable"}, "parentDataset": {"href": "/mdr/sendig/ar-1-0/datasets/CM", "title": "Concomitant/Prior Medications", "type": "SDTM Dataset"}, "parentProduct": {"href": "/mdr/sendig/ar-1-0", "title": "Standard for Exchange of Nonclinical Data Implementation Guide: Animal Rule Version 1.0 (Final)", "type": "Implementation Guide"}, "rootItem": {"href": "/mdr/root/sendig/datasets/CM/variables/CMXSTDY", "title": "Version-agnostic anchor resource for SENDIG variable CM.CMXSTDY", "type": "Root Data Element"}, "self": {"href": "/mdr/sendig/ar-1-0/datasets/CM/variables/CMXSTDY", "title": "Start Day of Med Rel to Exposure", "type": "SDTM Dataset Variable"}}, "core": "Exp", "description": "Day of start of concomitant medication relative to the first date of exposure to study treatment (RFXSTDTC in Demographics). Must be an integer.", "label": "Start Day of Med Rel to Exposure", "name": "CMXSTDY", "ordinal": "27", "role": "Timing", "simpleDatatype": "Num"}, {"_links": {"modelClassVariable": {"href": "/mdr/sdtm/1-8/classes/GeneralObservations/variables/--XENDY", "title": "End Day of Obs Relative to Exposure", "type": "Class Variable"}, "parentDataset": {"href": "/mdr/sendig/ar-1-0/datasets/CM", "title": "Concomitant/Prior Medications", "type": "SDTM Dataset"}, "parentProduct": {"href": "/mdr/sendig/ar-1-0", "title": "Standard for Exchange of Nonclinical Data Implementation Guide: Animal Rule Version 1.0 (Final)", "type": "Implementation Guide"}, "rootItem": {"href": "/mdr/root/sendig/datasets/CM/variables/CMXENDY", "title": "Version-agnostic anchor resource for SENDIG variable CM.CMXENDY", "type": "Root Data Element"}, "self": {"href": "/mdr/sendig/ar-1-0/datasets/CM/variables/CMXENDY", "title": "End Day of Med Rel to Exposure", "type": "SDTM Dataset Variable"}}, "core": "Perm", "description": "Day of end of concomitant medication relative to the first date of exposure to study treatment (RFXSTDTC in Demographics). Must be an integer.", "label": "End Day of Med Rel to Exposure", "name": "CMXENDY", "ordinal": "28", "role": "Timing", "simpleDatatype": "Num"}, {"_links": {"modelClassVariable": {"href": "/mdr/sdtm/1-8/classes/GeneralObservations/variables/--CHSTDY", "title": "Start Day of Obs Rel to Challenge Agent", "type": "Class Variable"}, "parentDataset": {"href": "/mdr/sendig/ar-1-0/datasets/CM", "title": "Concomitant/Prior Medications", "type": "SDTM Dataset"}, "parentProduct": {"href": "/mdr/sendig/ar-1-0", "title": "Standard for Exchange of Nonclinical Data Implementation Guide: Animal Rule Version 1.0 (Final)", "type": "Implementation Guide"}, "rootItem": {"href": "/mdr/root/sendig/datasets/CM/variables/CMCHSTDY", "title": "Version-agnostic anchor resource for SENDIG variable CM.CMCHSTDY", "type": "Root Data Element"}, "self": {"href": "/mdr/sendig/ar-1-0/datasets/CM/variables/CMCHSTDY", "title": "Start Day of Med Rel to Chall Agent", "type": "SDTM Dataset Variable"}}, "core": "Exp", "description": "Day of start of concomitant medication relative to the first date of exposure to challenge agent (RFCSTDTC in Demographics). Must be an integer.", "label": "Start Day of Med Rel to Chall Agent", "name": "CMCHSTDY", "ordinal": "29", "role": "Timing", "simpleDatatype": "Num"}, {"_links": {"modelClassVariable": {"href": "/mdr/sdtm/1-8/classes/GeneralObservations/variables/--CHENDY", "title": "End Day of Obs Rel to Challenge Agent", "type": "Class Variable"}, "parentDataset": {"href": "/mdr/sendig/ar-1-0/datasets/CM", "title": "Concomitant/Prior Medications", "type": "SDTM Dataset"}, "parentProduct": {"href": "/mdr/sendig/ar-1-0", "title": "Standard for Exchange of Nonclinical Data Implementation Guide: Animal Rule Version 1.0 (Final)", "type": "Implementation Guide"}, "rootItem": {"href": "/mdr/root/sendig/datasets/CM/variables/CMCHENDY", "title": "Version-agnostic anchor resource for SENDIG variable CM.CMCHENDY", "type": "Root Data Element"}, "self": {"href": "/mdr/sendig/ar-1-0/datasets/CM/variables/CMCHENDY", "title": "End Day of Med Rel to Chall Agent", "type": "SDTM Dataset Variable"}}, "core": "Perm", "description": "Day of end of concomitant medication relative to the first date of exposure to challenge agent (RFCSTDTC in Demographics). Must be an integer.", "label": "End Day of Med Rel to Chall Agent", "name": "CMCHENDY", "ordinal": "30", "role": "Timing", "simpleDatatype": "Num"}, {"_links": {"modelClassVariable": {"href": "/mdr/sdtm/1-8/classes/GeneralObservations/variables/--DUR", "title": "Duration", "type": "Class Variable"}, "parentDataset": {"href": "/mdr/sendig/ar-1-0/datasets/CM", "title": "Concomitant/Prior Medications", "type": "SDTM Dataset"}, "parentProduct": {"href": "/mdr/sendig/ar-1-0", "title": "Standard for Exchange of Nonclinical Data Implementation Guide: Animal Rule Version 1.0 (Final)", "type": "Implementation Guide"}, "rootItem": {"href": "/mdr/root/sendig/datasets/CM/variables/CMDUR", "title": "Version-agnostic anchor resource for SENDIG variable CM.CMDUR", "type": "Root Data Element"}, "self": {"href": "/mdr/sendig/ar-1-0/datasets/CM/variables/CMDUR", "title": "Duration", "type": "SDTM Dataset Variable"}}, "core": "Perm", "describedValueDomain": "ISO 8601", "description": "Collected duration for a treatment episode. Used only if collected and not derived from start and end date/times.", "label": "Duration", "name": "CMDUR", "ordinal": "31", "role": "Timing", "simpleDatatype": "Char"}], "label": "Concomitant/Prior Medications", "name": "CM", "ordinal": "2"}, {"_links": {"parentClass": {"href": "/mdr/sendig/ar-1-0/classes/Interventions", "title": "Interventions Observation Class", "type": "Class"}, "parentProduct": {"href": "/mdr/sendig/ar-1-0", "title": "Standard for Exchange of Nonclinical Data Implementation Guide: Animal Rule Version 1.0 (Final)", "type": "Implementation Guide"}, "self": {"href": "/mdr/sendig/ar-1-0/datasets/AG", "title": "Procedure Agents", "type": "SDTM Dataset"}}, "datasetStructure": "One record per constant dosing interval per treatment per subject or pool", "datasetVariables": [{"_links": {"modelClassVariable": {"href": "/mdr/sdtm/1-8/classes/GeneralObservations/variables/STUDYID", "title": "Study Identifier", "type": "Class Variable"}, "parentDataset": {"href": "/mdr/sendig/ar-1-0/datasets/AG", "title": "Procedure Agents", "type": "SDTM Dataset"}, "parentProduct": {"href": "/mdr/sendig/ar-1-0", "title": "Standard for Exchange of Nonclinical Data Implementation Guide: Animal Rule Version 1.0 (Final)", "type": "Implementation Guide"}, "rootItem": {"href": "/mdr/root/sendig/datasets/AG/variables/STUDYID", "title": "Version-agnostic anchor resource for SENDIG variable AG.STUDYID", "type": "Root Data Element"}, "self": {"href": "/mdr/sendig/ar-1-0/datasets/AG/variables/STUDYID", "title": "Study Identifier", "type": "SDTM Dataset Variable"}}, "core": "Req", "description": "Unique identifier for a study.", "label": "Study Identifier", "name": "STUDYID", "ordinal": "1", "role": "Identifier", "simpleDatatype": "Char"}, {"_links": {"modelClassVariable": {"href": "/mdr/sdtm/1-8/classes/GeneralObservations/variables/DOMAIN", "title": "Domain Abbreviation", "type": "Class Variable"}, "parentDataset": {"href": "/mdr/sendig/ar-1-0/datasets/AG", "title": "Procedure Agents", "type": "SDTM Dataset"}, "parentProduct": {"href": "/mdr/sendig/ar-1-0", "title": "Standard for Exchange of Nonclinical Data Implementation Guide: Animal Rule Version 1.0 (Final)", "type": "Implementation Guide"}, "rootItem": {"href": "/mdr/root/sendig/datasets/AG/variables/DOMAIN", "title": "Version-agnostic anchor resource for SENDIG variable AG.DOMAIN", "type": "Root Data Element"}, "self": {"href": "/mdr/sendig/ar-1-0/datasets/AG/variables/DOMAIN", "title": "Domain Abbreviation", "type": "SDTM Dataset Variable"}}, "core": "Req", "description": "Two-character abbreviation for the domain.", "label": "Domain Abbreviation", "name": "DOMAIN", "ordinal": "2", "role": "Identifier", "simpleDatatype": "Char", "valueList": ["AG"]}, {"_links": {"modelClassVariable": {"href": "/mdr/sdtm/1-8/classes/GeneralObservations/variables/USUBJID", "title": "Unique Subject Identifier", "type": "Class Variable"}, "parentDataset": {"href": "/mdr/sendig/ar-1-0/datasets/AG", "title": "Procedure Agents", "type": "SDTM Dataset"}, "parentProduct": {"href": "/mdr/sendig/ar-1-0", "title": "Standard for Exchange of Nonclinical Data Implementation Guide: Animal Rule Version 1.0 (Final)", "type": "Implementation Guide"}, "rootItem": {"href": "/mdr/root/sendig/datasets/AG/variables/USUBJID", "title": "Version-agnostic anchor resource for SENDIG variable AG.USUBJID", "type": "Root Data Element"}, "self": {"href": "/mdr/sendig/ar-1-0/datasets/AG/variables/USUBJID", "title": "Unique Subject Identifier", "type": "SDTM Dataset Variable"}}, "core": "Req", "description": "Identifier used to uniquely identify a subject across all studies for all applications or submissions involving the product.", "label": "Unique Subject Identifier", "name": "USUBJID", "ordinal": "3", "role": "Identifier", "simpleDatatype": "Char"}, {"_links": {"modelClassVariable": {"href": "/mdr/sdtm/1-8/classes/GeneralObservations/variables/FOCID", "title": "Focus of Study-Specific Interest", "type": "Class Variable"}, "parentDataset": {"href": "/mdr/sendig/ar-1-0/datasets/AG", "title": "Procedure Agents", "type": "SDTM Dataset"}, "parentProduct": {"href": "/mdr/sendig/ar-1-0", "title": "Standard for Exchange of Nonclinical Data Implementation Guide: Animal Rule Version 1.0 (Final)", "type": "Implementation Guide"}, "rootItem": {"href": "/mdr/root/sendig/datasets/AG/variables/FOCID", "title": "Version-agnostic anchor resource for SENDIG variable AG.FOCID", "type": "Root Data Element"}, "self": {"href": "/mdr/sendig/ar-1-0/datasets/AG/variables/FOCID", "title": "Focus of Study-SpecificInterest", "type": "SDTM Dataset Variable"}}, "core": "Perm", "description": "Identification of a focus of study-specific interest on or within a subject or specimen as called out in the protocol for which a measurement, test, or examination was performed, such the exposure site of the agent. The value in this variable should have inherent semantic meaning. Examples: \"Injection site 1\", \"Upper left quadrant of the back\".", "label": "Focus of Study-SpecificInterest", "name": "FOCID", "ordinal": "4", "role": "Identifier", "simpleDatatype": "Char"}, {"_links": {"modelClassVariable": {"href": "/mdr/sdtm/1-8/classes/GeneralObservations/variables/--SEQ", "title": "Sequence Number", "type": "Class Variable"}, "parentDataset": {"href": "/mdr/sendig/ar-1-0/datasets/AG", "title": "Procedure Agents", "type": "SDTM Dataset"}, "parentProduct": {"href": "/mdr/sendig/ar-1-0", "title": "Standard for Exchange of Nonclinical Data Implementation Guide: Animal Rule Version 1.0 (Final)", "type": "Implementation Guide"}, "rootItem": {"href": "/mdr/root/sendig/datasets/AG/variables/AGSEQ", "title": "Version-agnostic anchor resource for SENDIG variable AG.AGSEQ", "type": "Root Data Element"}, "self": {"href": "/mdr/sendig/ar-1-0/datasets/AG/variables/AGSEQ", "title": "Sequence Number", "type": "SDTM Dataset Variable"}}, "core": "Req", "description": "Sequence number given to ensure uniqueness of subject records within a domain. May be any valid number.", "label": "Sequence Number", "name": "AGSEQ", "ordinal": "5", "role": "Identifier", "simpleDatatype": "Num"}, {"_links": {"modelClassVariable": {"href": "/mdr/sdtm/1-8/classes/GeneralObservations/variables/--GRPID", "title": "Group ID", "type": "Class Variable"}, "parentDataset": {"href": "/mdr/sendig/ar-1-0/datasets/AG", "title": "Procedure Agents", "type": "SDTM Dataset"}, "parentProduct": {"href": "/mdr/sendig/ar-1-0", "title": "Standard for Exchange of Nonclinical Data Implementation Guide: Animal Rule Version 1.0 (Final)", "type": "Implementation Guide"}, "rootItem": {"href": "/mdr/root/sendig/datasets/AG/variables/AGGRPID", "title": "Version-agnostic anchor resource for SENDIG variable AG.AGGRPID", "type": "Root Data Element"}, "self": {"href": "/mdr/sendig/ar-1-0/datasets/AG/variables/AGGRPID", "title": "Group ID", "type": "SDTM Dataset Variable"}}, "core": "Perm", "description": "Used to tie together a block of related records in a single domain for a subject.", "label": "Group ID", "name": "AGGRPID", "ordinal": "6", "role": "Identifier", "simpleDatatype": "Char"}, {"_links": {"modelClassVariable": {"href": "/mdr/sdtm/1-8/classes/GeneralObservations/variables/--SPID", "title": "Sponsor-Defined Identifier", "type": "Class Variable"}, "parentDataset": {"href": "/mdr/sendig/ar-1-0/datasets/AG", "title": "Procedure Agents", "type": "SDTM Dataset"}, "parentProduct": {"href": "/mdr/sendig/ar-1-0", "title": "Standard for Exchange of Nonclinical Data Implementation Guide: Animal Rule Version 1.0 (Final)", "type": "Implementation Guide"}, "rootItem": {"href": "/mdr/root/sendig/datasets/AG/variables/AGSPID", "title": "Version-agnostic anchor resource for SENDIG variable AG.AGSPID", "type": "Root Data Element"}, "self": {"href": "/mdr/sendig/ar-1-0/datasets/AG/variables/AGSPID", "title": "Sponsor-Defined Identifier", "type": "SDTM Dataset Variable"}}, "core": "Perm", "description": "Sponsor-defined reference number.", "label": "Sponsor-Defined Identifier", "name": "AGSPID", "ordinal": "7", "role": "Identifier", "simpleDatatype": "Char"}, {"_links": {"modelClassVariable": {"href": "/mdr/sdtm/1-8/classes/GeneralObservations/variables/--LNKID", "title": "Link ID", "type": "Class Variable"}, "parentDataset": {"href": "/mdr/sendig/ar-1-0/datasets/AG", "title": "Procedure Agents", "type": "SDTM Dataset"}, "parentProduct": {"href": "/mdr/sendig/ar-1-0", "title": "Standard for Exchange of Nonclinical Data Implementation Guide: Animal Rule Version 1.0 (Final)", "type": "Implementation Guide"}, "rootItem": {"href": "/mdr/root/sendig/datasets/AG/variables/AGLNKID", "title": "Version-agnostic anchor resource for SENDIG variable AG.AGLNKID", "type": "Root Data Element"}, "self": {"href": "/mdr/sendig/ar-1-0/datasets/AG/variables/AGLNKID", "title": "Link ID", "type": "SDTM Dataset Variable"}}, "core": "Perm", "description": "Identifier used to link related records across domains. This may be a one-to-one or a one-to-many relationship.", "label": "Link ID", "name": "AGLNKID", "ordinal": "8", "role": "Identifier", "simpleDatatype": "Char"}, {"_links": {"modelClassVariable": {"href": "/mdr/sdtm/1-8/classes/GeneralObservations/variables/--LNKGRP", "title": "Link Group ID", "type": "Class Variable"}, "parentDataset": {"href": "/mdr/sendig/ar-1-0/datasets/AG", "title": "Procedure Agents", "type": "SDTM Dataset"}, "parentProduct": {"href": "/mdr/sendig/ar-1-0", "title": "Standard for Exchange of Nonclinical Data Implementation Guide: Animal Rule Version 1.0 (Final)", "type": "Implementation Guide"}, "rootItem": {"href": "/mdr/root/sendig/datasets/AG/variables/AGLNKGRP", "title": "Version-agnostic anchor resource for SENDIG variable AG.AGLNKGRP", "type": "Root Data Element"}, "self": {"href": "/mdr/sendig/ar-1-0/datasets/AG/variables/AGLNKGRP", "title": "Link Group ID", "type": "SDTM Dataset Variable"}}, "core": "Perm", "description": "Identifier used to link related records across domains. This will usually be a many-to-one relationship.", "label": "Link Group ID", "name": "AGLNKGRP", "ordinal": "9", "role": "Identifier", "simpleDatatype": "Char"}, {"_links": {"modelClassVariable": {"href": "/mdr/sdtm/1-8/classes/Interventions/variables/--TRT", "title": "Name of Treatment", "type": "Class Variable"}, "parentDataset": {"href": "/mdr/sendig/ar-1-0/datasets/AG", "title": "Procedure Agents", "type": "SDTM Dataset"}, "parentProduct": {"href": "/mdr/sendig/ar-1-0", "title": "Standard for Exchange of Nonclinical Data Implementation Guide: Animal Rule Version 1.0 (Final)", "type": "Implementation Guide"}, "rootItem": {"href": "/mdr/root/sendig/datasets/AG/variables/AGTRT", "title": "Version-agnostic anchor resource for SENDIG variable AG.AGTRT", "type": "Root Data Element"}, "self": {"href": "/mdr/sendig/ar-1-0/datasets/AG/variables/AGTRT", "title": "Reported Agent Name", "type": "SDTM Dataset Variable"}}, "core": "Req", "description": "Verbatim name of challenge agent or other procedure agent administered.", "label": "Reported Agent Name", "name": "AGTRT", "ordinal": "10", "role": "Topic", "simpleDatatype": "Char"}, {"_links": {"modelClassVariable": {"href": "/mdr/sdtm/1-8/classes/Interventions/variables/--CAT", "title": "Category", "type": "Class Variable"}, "parentDataset": {"href": "/mdr/sendig/ar-1-0/datasets/AG", "title": "Procedure Agents", "type": "SDTM Dataset"}, "parentProduct": {"href": "/mdr/sendig/ar-1-0", "title": "Standard for Exchange of Nonclinical Data Implementation Guide: Animal Rule Version 1.0 (Final)", "type": "Implementation Guide"}, "rootItem": {"href": "/mdr/root/sendig/datasets/AG/variables/AGCAT", "title": "Version-agnostic anchor resource for SENDIG variable AG.AGCAT", "type": "Root Data Element"}, "self": {"href": "/mdr/sendig/ar-1-0/datasets/AG/variables/AGCAT", "title": "Category of Agent", "type": "SDTM Dataset Variable"}}, "core": "Perm", "description": "Category of agent. Examples: \"CHALLENGE AGENT\", \"RESTRAINT AGENT\", \"EUTHANASIA AGENT\".", "label": "Category of Agent", "name": "AGCAT", "ordinal": "11", "role": "Record Qualifier", "simpleDatatype": "Char"}, {"_links": {"codelist": [{"href": "/mdr/root/ct/sendct/codelists/C66789", "title": "Version-agnostic anchor resource for codelist C66789", "type": "Root Value Domain"}], "modelClassVariable": {"href": "/mdr/sdtm/1-8/classes/Interventions/variables/--STAT", "title": "Completion Status", "type": "Class Variable"}, "parentDataset": {"href": "/mdr/sendig/ar-1-0/datasets/AG", "title": "Procedure Agents", "type": "SDTM Dataset"}, "parentProduct": {"href": "/mdr/sendig/ar-1-0", "title": "Standard for Exchange of Nonclinical Data Implementation Guide: Animal Rule Version 1.0 (Final)", "type": "Implementation Guide"}, "rootItem": {"href": "/mdr/root/sendig/datasets/AG/variables/AGSTAT", "title": "Version-agnostic anchor resource for SENDIG variable AG.AGSTAT", "type": "Root Data Element"}, "self": {"href": "/mdr/sendig/ar-1-0/datasets/AG/variables/AGSTAT", "title": "Completion Status", "type": "SDTM Dataset Variable"}}, "core": "Perm", "description": "Used to indicate that a question about a pre-specified agent was not answered. Should be null or have a value of \"NOT DONE\".", "label": "Completion Status", "name": "AGSTAT", "ordinal": "12", "role": "Record Qualifier", "simpleDatatype": "Char"}, {"_links": {"modelClassVariable": {"href": "/mdr/sdtm/1-8/classes/Interventions/variables/--REASND", "title": "Reason Not Done", "type": "Class Variable"}, "parentDataset": {"href": "/mdr/sendig/ar-1-0/datasets/AG", "title": "Procedure Agents", "type": "SDTM Dataset"}, "parentProduct": {"href": "/mdr/sendig/ar-1-0", "title": "Standard for Exchange of Nonclinical Data Implementation Guide: Animal Rule Version 1.0 (Final)", "type": "Implementation Guide"}, "rootItem": {"href": "/mdr/root/sendig/datasets/AG/variables/AGREASND", "title": "Version-agnostic anchor resource for SENDIG variable AG.AGREASND", "type": "Root Data Element"}, "self": {"href": "/mdr/sendig/ar-1-0/datasets/AG/variables/AGREASND", "title": "Reason Not Done", "type": "SDTM Dataset Variable"}}, "core": "Perm", "description": "Describes the reason procedure agent information was not collected. Used in conjunction with AGSTAT when value is \"NOT DONE\".", "label": "Reason Not Done", "name": "AGREASND", "ordinal": "13", "role": "Record Qualifier", "simpleDatatype": "Char"}, {"_links": {"modelClassVariable": {"href": "/mdr/sdtm/1-8/classes/Interventions/variables/--DOSE", "title": "Dose", "type": "Class Variable"}, "parentDataset": {"href": "/mdr/sendig/ar-1-0/datasets/AG", "title": "Procedure Agents", "type": "SDTM Dataset"}, "parentProduct": {"href": "/mdr/sendig/ar-1-0", "title": "Standard for Exchange of Nonclinical Data Implementation Guide: Animal Rule Version 1.0 (Final)", "type": "Implementation Guide"}, "rootItem": {"href": "/mdr/root/sendig/datasets/AG/variables/AGDOSE", "title": "Version-agnostic anchor resource for SENDIG variable AG.AGDOSE", "type": "Root Data Element"}, "self": {"href": "/mdr/sendig/ar-1-0/datasets/AG/variables/AGDOSE", "title": "Dose per Administration", "type": "SDTM Dataset Variable"}}, "core": "Perm", "description": "Amount of AGTRT administered.", "label": "Dose per Administration", "name": "AGDOSE", "ordinal": "14", "role": "Record Qualifier", "simpleDatatype": "Num"}, {"_links": {"modelClassVariable": {"href": "/mdr/sdtm/1-8/classes/Interventions/variables/--DOSTXT", "title": "Dose Description", "type": "Class Variable"}, "parentDataset": {"href": "/mdr/sendig/ar-1-0/datasets/AG", "title": "Procedure Agents", "type": "SDTM Dataset"}, "parentProduct": {"href": "/mdr/sendig/ar-1-0", "title": "Standard for Exchange of Nonclinical Data Implementation Guide: Animal Rule Version 1.0 (Final)", "type": "Implementation Guide"}, "rootItem": {"href": "/mdr/root/sendig/datasets/AG/variables/AGDOSTXT", "title": "Version-agnostic anchor resource for SENDIG variable AG.AGDOSTXT", "type": "Root Data Element"}, "self": {"href": "/mdr/sendig/ar-1-0/datasets/AG/variables/AGDOSTXT", "title": "Dose Description", "type": "SDTM Dataset Variable"}}, "core": "Perm", "description": "Dosing amounts or a range of dosing information collected in text form. Units may be stored in AGDOSU. Examples: \"200-400\", \"15-20\".", "label": "Dose Description", "name": "AGDOSTXT", "ordinal": "15", "role": "Record Qualifier", "simpleDatatype": "Char"}, {"_links": {"codelist": [{"href": "/mdr/root/ct/sendct/codelists/C71620", "title": "Version-agnostic anchor resource for codelist C71620", "type": "Root Value Domain"}], "modelClassVariable": {"href": "/mdr/sdtm/1-8/classes/Interventions/variables/--DOSU", "title": "Dose Units", "type": "Class Variable"}, "parentDataset": {"href": "/mdr/sendig/ar-1-0/datasets/AG", "title": "Procedure Agents", "type": "SDTM Dataset"}, "parentProduct": {"href": "/mdr/sendig/ar-1-0", "title": "Standard for Exchange of Nonclinical Data Implementation Guide: Animal Rule Version 1.0 (Final)", "type": "Implementation Guide"}, "rootItem": {"href": "/mdr/root/sendig/datasets/AG/variables/AGDOSU", "title": "Version-agnostic anchor resource for SENDIG variable AG.AGDOSU", "type": "Root Data Element"}, "self": {"href": "/mdr/sendig/ar-1-0/datasets/AG/variables/AGDOSU", "title": "Dose Units", "type": "SDTM Dataset Variable"}}, "core": "Perm", "description": "Units for AGDOSE and AGDOSTXT. Examples: \"ng\", \"mg\", \"mg/kg\".", "label": "Dose Units", "name": "AGDOSU", "ordinal": "16", "role": "Variable Qualifier", "simpleDatatype": "Char"}, {"_links": {"modelClassVariable": {"href": "/mdr/sdtm/1-8/classes/Interventions/variables/--TDOSD", "title": "Toxic/Physiologic Dose Descr", "type": "Class Variable"}, "parentDataset": {"href": "/mdr/sendig/ar-1-0/datasets/AG", "title": "Procedure Agents", "type": "SDTM Dataset"}, "parentProduct": {"href": "/mdr/sendig/ar-1-0", "title": "Standard for Exchange of Nonclinical Data Implementation Guide: Animal Rule Version 1.0 (Final)", "type": "Implementation Guide"}, "rootItem": {"href": "/mdr/root/sendig/datasets/AG/variables/AGTDOSD", "title": "Version-agnostic anchor resource for SENDIG variable AG.AGTDOSD", "type": "Root Data Element"}, "self": {"href": "/mdr/sendig/ar-1-0/datasets/AG/variables/AGTDOSD", "title": "Toxic/Physiologic Dose Descr", "type": "SDTM Dataset Variable"}}, "core": "Perm", "description": "A description of a statistically derived estimate of a dose with a certain toxicological or physiologic effect in a population, based on data from a dose-response study. Examples: \"LD50\", \"ED90\"[2].", "label": "Toxic/Physiologic Dose Descr", "name": "AGTDOSD", "ordinal": "17", "role": "Variable Qualifier", "simpleDatatype": "Char"}, {"_links": {"modelClassVariable": {"href": "/mdr/sdtm/1-8/classes/Interventions/variables/--FTDOSD", "title": "Factor for Toxic/Physiologic Dose Descr", "type": "Class Variable"}, "parentDataset": {"href": "/mdr/sendig/ar-1-0/datasets/AG", "title": "Procedure Agents", "type": "SDTM Dataset"}, "parentProduct": {"href": "/mdr/sendig/ar-1-0", "title": "Standard for Exchange of Nonclinical Data Implementation Guide: Animal Rule Version 1.0 (Final)", "type": "Implementation Guide"}, "rootItem": {"href": "/mdr/root/sendig/datasets/AG/variables/AGFTDOSD", "title": "Version-agnostic anchor resource for SENDIG variable AG.AGFTDOSD", "type": "Root Data Element"}, "self": {"href": "/mdr/sendig/ar-1-0/datasets/AG/variables/AGFTDOSD", "title": "Factor for Toxic/Physiologic Dose Descr", "type": "SDTM Dataset Variable"}}, "core": "Perm", "description": "The quantity given for the multiplier of the Toxicologic/Physiologic Dose Descriptor. \n Example: AGFTDOSD=\"10\" used when AGTDOSD=\"LD50\" to represent a dose that is 10 times the LD50.", "label": "Factor for Toxic/Physiologic Dose Descr", "name": "AGFTDOSD", "ordinal": "18", "role": "Record Qualifier", "simpleDatatype": "Num"}, {"_links": {"codelist": [{"href": "/mdr/root/ct/sendct/codelists/C66726", "title": "Version-agnostic anchor resource for codelist C66726", "type": "Root Value Domain"}], "modelClassVariable": {"href": "/mdr/sdtm/1-8/classes/Interventions/variables/--DOSFRM", "title": "Dose Form", "type": "Class Variable"}, "parentDataset": {"href": "/mdr/sendig/ar-1-0/datasets/AG", "title": "Procedure Agents", "type": "SDTM Dataset"}, "parentProduct": {"href": "/mdr/sendig/ar-1-0", "title": "Standard for Exchange of Nonclinical Data Implementation Guide: Animal Rule Version 1.0 (Final)", "type": "Implementation Guide"}, "rootItem": {"href": "/mdr/root/sendig/datasets/AG/variables/AGDOSFRM", "title": "Version-agnostic anchor resource for SENDIG variable AG.AGDOSFRM", "type": "Root Data Element"}, "self": {"href": "/mdr/sendig/ar-1-0/datasets/AG/variables/AGDOSFRM", "title": "Dose Form", "type": "SDTM Dataset Variable"}}, "core": "Perm", "description": "Dose form for AGTRT. Examples: \"TABLET\", \"AEROSOL\".", "label": "Dose Form", "name": "AGDOSFRM", "ordinal": "19", "role": "Variable Qualifier", "simpleDatatype": "Char"}, {"_links": {"codelist": [{"href": "/mdr/root/ct/sendct/codelists/C71113", "title": "Version-agnostic anchor resource for codelist C71113", "type": "Root Value Domain"}], "modelClassVariable": {"href": "/mdr/sdtm/1-8/classes/Interventions/variables/--DOSFRQ", "title": "Dosing Frequency per Interval", "type": "Class Variable"}, "parentDataset": {"href": "/mdr/sendig/ar-1-0/datasets/AG", "title": "Procedure Agents", "type": "SDTM Dataset"}, "parentProduct": {"href": "/mdr/sendig/ar-1-0", "title": "Standard for Exchange of Nonclinical Data Implementation Guide: Animal Rule Version 1.0 (Final)", "type": "Implementation Guide"}, "rootItem": {"href": "/mdr/root/sendig/datasets/AG/variables/AGDOSFRQ", "title": "Version-agnostic anchor resource for SENDIG variable AG.AGDOSFRQ", "type": "Root Data Element"}, "self": {"href": "/mdr/sendig/ar-1-0/datasets/AG/variables/AGDOSFRQ", "title": "Dosing Frequency per Interval", "type": "SDTM Dataset Variable"}}, "core": "Perm", "description": "Usually expressed as the number of repeated administrations of AGDOSE within a specific time period. Example: \"ONCE\".", "label": "Dosing Frequency per Interval", "name": "AGDOSFRQ", "ordinal": "20", "role": "Variable Qualifier", "simpleDatatype": "Char"}, {"_links": {"codelist": [{"href": "/mdr/root/ct/sendct/codelists/C66729", "title": "Version-agnostic anchor resource for codelist C66729", "type": "Root Value Domain"}], "modelClassVariable": {"href": "/mdr/sdtm/1-8/classes/Interventions/variables/--ROUTE", "title": "Route of Administration", "type": "Class Variable"}, "parentDataset": {"href": "/mdr/sendig/ar-1-0/datasets/AG", "title": "Procedure Agents", "type": "SDTM Dataset"}, "parentProduct": {"href": "/mdr/sendig/ar-1-0", "title": "Standard for Exchange of Nonclinical Data Implementation Guide: Animal Rule Version 1.0 (Final)", "type": "Implementation Guide"}, "rootItem": {"href": "/mdr/root/sendig/datasets/AG/variables/AGROUTE", "title": "Version-agnostic anchor resource for SENDIG variable AG.AGROUTE", "type": "Root Data Element"}, "self": {"href": "/mdr/sendig/ar-1-0/datasets/AG/variables/AGROUTE", "title": "Route of Administration", "type": "SDTM Dataset Variable"}}, "core": "Perm", "description": "Route of administration for AGTRT. Examples: \"ORAL\", \"INTRAMUSCULAR\".", "label": "Route of Administration", "name": "AGROUTE", "ordinal": "21", "role": "Variable Qualifier", "simpleDatatype": "Char"}, {"_links": {"codelist": [{"href": "/mdr/root/ct/sendct/codelists/C66742", "title": "Version-agnostic anchor resource for codelist C66742", "type": "Root Value Domain"}], "modelClassVariable": {"href": "/mdr/sdtm/1-8/classes/Interventions/variables/--RSTIND", "title": "Restraint Indicator", "type": "Class Variable"}, "parentDataset": {"href": "/mdr/sendig/ar-1-0/datasets/AG", "title": "Procedure Agents", "type": "SDTM Dataset"}, "parentProduct": {"href": "/mdr/sendig/ar-1-0", "title": "Standard for Exchange of Nonclinical Data Implementation Guide: Animal Rule Version 1.0 (Final)", "type": "Implementation Guide"}, "rootItem": {"href": "/mdr/root/sendig/datasets/AG/variables/AGRSTIND", "title": "Version-agnostic anchor resource for SENDIG variable AG.AGRSTIND", "type": "Root Data Element"}, "self": {"href": "/mdr/sendig/ar-1-0/datasets/AG/variables/AGRSTIND", "title": "Restraint Indicator", "type": "SDTM Dataset Variable"}}, "core": "Exp", "description": "An indicator as to whether the subject was restrained during the intervention period.", "label": "Restraint Indicator", "name": "AGRSTIND", "ordinal": "22", "role": "Record Qualifier", "simpleDatatype": "Char"}, {"_links": {"codelist": [{"href": "/mdr/root/ct/sendct/codelists/C158123", "title": "Version-agnostic anchor resource for codelist C158123", "type": "Root Value Domain"}], "modelClassVariable": {"href": "/mdr/sdtm/1-8/classes/Interventions/variables/--RSTMOD", "title": "Restraint Mode", "type": "Class Variable"}, "parentDataset": {"href": "/mdr/sendig/ar-1-0/datasets/AG", "title": "Procedure Agents", "type": "SDTM Dataset"}, "parentProduct": {"href": "/mdr/sendig/ar-1-0", "title": "Standard for Exchange of Nonclinical Data Implementation Guide: Animal Rule Version 1.0 (Final)", "type": "Implementation Guide"}, "rootItem": {"href": "/mdr/root/sendig/datasets/AG/variables/AGRSTMOD", "title": "Version-agnostic anchor resource for SENDIG variable AG.AGRSTMOD", "type": "Root Data Element"}, "self": {"href": "/mdr/sendig/ar-1-0/datasets/AG/variables/AGRSTMOD", "title": "Restraint Mode", "type": "SDTM Dataset Variable"}}, "core": "Exp", "description": "A description of whether the restraint was physical and/or chemical.", "label": "Restraint Mode", "name": "AGRSTMOD", "ordinal": "23", "role": "Record Qualifier", "simpleDatatype": "Char"}, {"_links": {"modelClassVariable": {"href": "/mdr/sdtm/1-8/classes/GeneralObservations/variables/--STDTC", "title": "Start Date/Time of Observation", "type": "Class Variable"}, "parentDataset": {"href": "/mdr/sendig/ar-1-0/datasets/AG", "title": "Procedure Agents", "type": "SDTM Dataset"}, "parentProduct": {"href": "/mdr/sendig/ar-1-0", "title": "Standard for Exchange of Nonclinical Data Implementation Guide: Animal Rule Version 1.0 (Final)", "type": "Implementation Guide"}, "rootItem": {"href": "/mdr/root/sendig/datasets/AG/variables/AGSTDTC", "title": "Version-agnostic anchor resource for SENDIG variable AG.AGSTDTC", "type": "Root Data Element"}, "self": {"href": "/mdr/sendig/ar-1-0/datasets/AG/variables/AGSTDTC", "title": "Start Date/Time of Agent", "type": "SDTM Dataset Variable"}}, "core": "Perm", "describedValueDomain": "ISO 8601", "description": "The date/time when administration of the agent indicated by AGTRT and the dosing variables began.", "label": "Start Date/Time of Agent", "name": "AGSTDTC", "ordinal": "24", "role": "Timing", "simpleDatatype": "Char"}, {"_links": {"modelClassVariable": {"href": "/mdr/sdtm/1-8/classes/GeneralObservations/variables/--ENDTC", "title": "End Date/Time of Observation", "type": "Class Variable"}, "parentDataset": {"href": "/mdr/sendig/ar-1-0/datasets/AG", "title": "Procedure Agents", "type": "SDTM Dataset"}, "parentProduct": {"href": "/mdr/sendig/ar-1-0", "title": "Standard for Exchange of Nonclinical Data Implementation Guide: Animal Rule Version 1.0 (Final)", "type": "Implementation Guide"}, "rootItem": {"href": "/mdr/root/sendig/datasets/AG/variables/AGENDTC", "title": "Version-agnostic anchor resource for SENDIG variable AG.AGENDTC", "type": "Root Data Element"}, "self": {"href": "/mdr/sendig/ar-1-0/datasets/AG/variables/AGENDTC", "title": "End Date/Time of Agent", "type": "SDTM Dataset Variable"}}, "core": "Perm", "describedValueDomain": "ISO 8601", "description": "The date/time when administration of the agent indicated by AGTRT and the dosing variables ended.", "label": "End Date/Time of Agent", "name": "AGENDTC", "ordinal": "25", "role": "Timing", "simpleDatatype": "Char"}, {"_links": {"modelClassVariable": {"href": "/mdr/sdtm/1-8/classes/GeneralObservations/variables/--STDY", "title": "Study Day of Start of Observation", "type": "Class Variable"}, "parentDataset": {"href": "/mdr/sendig/ar-1-0/datasets/AG", "title": "Procedure Agents", "type": "SDTM Dataset"}, "parentProduct": {"href": "/mdr/sendig/ar-1-0", "title": "Standard for Exchange of Nonclinical Data Implementation Guide: Animal Rule Version 1.0 (Final)", "type": "Implementation Guide"}, "rootItem": {"href": "/mdr/root/sendig/datasets/AG/variables/AGSTDY", "title": "Version-agnostic anchor resource for SENDIG variable AG.AGSTDY", "type": "Root Data Element"}, "self": {"href": "/mdr/sendig/ar-1-0/datasets/AG/variables/AGSTDY", "title": "Study Day of Start of Treatment", "type": "SDTM Dataset Variable"}}, "core": "Exp", "description": "Day of start of exposure to challenge agent in AGSTDTC relative to the first date of study start (RFSTDTC in Demographics). Must be an integer.", "label": "Study Day of Start of Treatment", "name": "AGSTDY", "ordinal": "26", "role": "Timing", "simpleDatatype": "Num"}, {"_links": {"modelClassVariable": {"href": "/mdr/sdtm/1-8/classes/GeneralObservations/variables/--ENDY", "title": "Study Day of End of Observation", "type": "Class Variable"}, "parentDataset": {"href": "/mdr/sendig/ar-1-0/datasets/AG", "title": "Procedure Agents", "type": "SDTM Dataset"}, "parentProduct": {"href": "/mdr/sendig/ar-1-0", "title": "Standard for Exchange of Nonclinical Data Implementation Guide: Animal Rule Version 1.0 (Final)", "type": "Implementation Guide"}, "rootItem": {"href": "/mdr/root/sendig/datasets/AG/variables/AGENDY", "title": "Version-agnostic anchor resource for SENDIG variable AG.AGENDY", "type": "Root Data Element"}, "self": {"href": "/mdr/sendig/ar-1-0/datasets/AG/variables/AGENDY", "title": "Study Day of End of Treatment", "type": "SDTM Dataset Variable"}}, "core": "Perm", "description": "Day of end of exposure to challenge agent in AGENDTC relative to the first date of study start (RFSTDTC in Demographics). Must be an integer.", "label": "Study Day of End of Treatment", "name": "AGENDY", "ordinal": "27", "role": "Timing", "simpleDatatype": "Num"}, {"_links": {"modelClassVariable": {"href": "/mdr/sdtm/1-8/classes/GeneralObservations/variables/--NOMDY", "title": "Nominal Study Day for Tabulations", "type": "Class Variable"}, "parentDataset": {"href": "/mdr/sendig/ar-1-0/datasets/AG", "title": "Procedure Agents", "type": "SDTM Dataset"}, "parentProduct": {"href": "/mdr/sendig/ar-1-0", "title": "Standard for Exchange of Nonclinical Data Implementation Guide: Animal Rule Version 1.0 (Final)", "type": "Implementation Guide"}, "rootItem": {"href": "/mdr/root/sendig/datasets/AG/variables/AGNOMDY", "title": "Version-agnostic anchor resource for SENDIG variable AG.AGNOMDY", "type": "Root Data Element"}, "self": {"href": "/mdr/sendig/ar-1-0/datasets/AG/variables/AGNOMDY", "title": "Nominal Study Day for Tabulations", "type": "SDTM Dataset Variable"}}, "core": "Exp", "description": "Nominal study day used for grouping records for observations that may occur on different days into a single reported study day. Should be an integer.", "label": "Nominal Study Day for Tabulations", "name": "AGNOMDY", "ordinal": "28", "role": "Timing", "simpleDatatype": "Num"}, {"_links": {"modelClassVariable": {"href": "/mdr/sdtm/1-8/classes/GeneralObservations/variables/--NOMLBL", "title": "Label for Nominal Study Day", "type": "Class Variable"}, "parentDataset": {"href": "/mdr/sendig/ar-1-0/datasets/AG", "title": "Procedure Agents", "type": "SDTM Dataset"}, "parentProduct": {"href": "/mdr/sendig/ar-1-0", "title": "Standard for Exchange of Nonclinical Data Implementation Guide: Animal Rule Version 1.0 (Final)", "type": "Implementation Guide"}, "rootItem": {"href": "/mdr/root/sendig/datasets/AG/variables/AGNOMLBL", "title": "Version-agnostic anchor resource for SENDIG variable AG.AGNOMLBL", "type": "Root Data Element"}, "self": {"href": "/mdr/sendig/ar-1-0/datasets/AG/variables/AGNOMLBL", "title": "Label for Nominal Study Day", "type": "SDTM Dataset Variable"}}, "core": "Perm", "description": "A label for a given value of AGNOMDY as presented in the study report. Examples: \"Week 4\", \"Day 28\".", "label": "Label for Nominal Study Day", "name": "AGNOMLBL", "ordinal": "29", "role": "Timing", "simpleDatatype": "Char"}, {"_links": {"modelClassVariable": {"href": "/mdr/sdtm/1-8/classes/GeneralObservations/variables/--XSTDY", "title": "Start Day of Obs Relative to Exposure", "type": "Class Variable"}, "parentDataset": {"href": "/mdr/sendig/ar-1-0/datasets/AG", "title": "Procedure Agents", "type": "SDTM Dataset"}, "parentProduct": {"href": "/mdr/sendig/ar-1-0", "title": "Standard for Exchange of Nonclinical Data Implementation Guide: Animal Rule Version 1.0 (Final)", "type": "Implementation Guide"}, "rootItem": {"href": "/mdr/root/sendig/datasets/AG/variables/AGXSTDY", "title": "Version-agnostic anchor resource for SENDIG variable AG.AGXSTDY", "type": "Root Data Element"}, "self": {"href": "/mdr/sendig/ar-1-0/datasets/AG/variables/AGXSTDY", "title": "Start Day of Chall Agent Rel to Exposure", "type": "SDTM Dataset Variable"}}, "core": "Exp", "description": "Day of start of exposure to challenge agent in AGSTDTC relative to the first date of exposure (RFXSTDTC in Demographics). Must be an integer.", "label": "Start Day of Chall Agent Rel to Exposure", "name": "AGXSTDY", "ordinal": "30", "role": "Timing", "simpleDatatype": "Num"}, {"_links": {"modelClassVariable": {"href": "/mdr/sdtm/1-8/classes/GeneralObservations/variables/--XENDY", "title": "End Day of Obs Relative to Exposure", "type": "Class Variable"}, "parentDataset": {"href": "/mdr/sendig/ar-1-0/datasets/AG", "title": "Procedure Agents", "type": "SDTM Dataset"}, "parentProduct": {"href": "/mdr/sendig/ar-1-0", "title": "Standard for Exchange of Nonclinical Data Implementation Guide: Animal Rule Version 1.0 (Final)", "type": "Implementation Guide"}, "rootItem": {"href": "/mdr/root/sendig/datasets/AG/variables/AGXENDY", "title": "Version-agnostic anchor resource for SENDIG variable AG.AGXENDY", "type": "Root Data Element"}, "self": {"href": "/mdr/sendig/ar-1-0/datasets/AG/variables/AGXENDY", "title": "End Day of Chall Agent Rel to Exposure", "type": "SDTM Dataset Variable"}}, "core": "Perm", "description": "Day of end of exposure to challenge agent in AGENDTC relative to the first date of exposure (RFXSTDTC in Demographics). Must be an integer.", "label": "End Day of Chall Agent Rel to Exposure", "name": "AGXENDY", "ordinal": "31", "role": "Timing", "simpleDatatype": "Num"}], "label": "Procedure Agents", "name": "AG", "ordinal": "3"}, {"_links": {"parentClass": {"href": "/mdr/sendig/ar-1-0/classes/Interventions", "title": "Interventions Observation Class", "type": "Class"}, "parentProduct": {"href": "/mdr/sendig/ar-1-0", "title": "Standard for Exchange of Nonclinical Data Implementation Guide: Animal Rule Version 1.0 (Final)", "type": "Implementation Guide"}, "self": {"href": "/mdr/sendig/ar-1-0/datasets/PR", "title": "Procedures", "type": "SDTM Dataset"}}, "datasetStructure": "One record per recorded procedure per occurrence per subject", "datasetVariables": [{"_links": {"modelClassVariable": {"href": "/mdr/sdtm/1-8/classes/GeneralObservations/variables/STUDYID", "title": "Study Identifier", "type": "Class Variable"}, "parentDataset": {"href": "/mdr/sendig/ar-1-0/datasets/PR", "title": "Procedures", "type": "SDTM Dataset"}, "parentProduct": {"href": "/mdr/sendig/ar-1-0", "title": "Standard for Exchange of Nonclinical Data Implementation Guide: Animal Rule Version 1.0 (Final)", "type": "Implementation Guide"}, "rootItem": {"href": "/mdr/root/sendig/datasets/PR/variables/STUDYID", "title": "Version-agnostic anchor resource for SENDIG variable PR.STUDYID", "type": "Root Data Element"}, "self": {"href": "/mdr/sendig/ar-1-0/datasets/PR/variables/STUDYID", "title": "Study Identifier", "type": "SDTM Dataset Variable"}}, "core": "Req", "description": "Unique identifier for a study.", "label": "Study Identifier", "name": "STUDYID", "ordinal": "1", "role": "Identifier", "simpleDatatype": "Char"}, {"_links": {"modelClassVariable": {"href": "/mdr/sdtm/1-8/classes/GeneralObservations/variables/DOMAIN", "title": "Domain Abbreviation", "type": "Class Variable"}, "parentDataset": {"href": "/mdr/sendig/ar-1-0/datasets/PR", "title": "Procedures", "type": "SDTM Dataset"}, "parentProduct": {"href": "/mdr/sendig/ar-1-0", "title": "Standard for Exchange of Nonclinical Data Implementation Guide: Animal Rule Version 1.0 (Final)", "type": "Implementation Guide"}, "rootItem": {"href": "/mdr/root/sendig/datasets/PR/variables/DOMAIN", "title": "Version-agnostic anchor resource for SENDIG variable PR.DOMAIN", "type": "Root Data Element"}, "self": {"href": "/mdr/sendig/ar-1-0/datasets/PR/variables/DOMAIN", "title": "Domain Abbreviation", "type": "SDTM Dataset Variable"}}, "core": "Req", "description": "Two-character abbreviation for the domain.", "label": "Domain Abbreviation", "name": "DOMAIN", "ordinal": "2", "role": "Identifier", "simpleDatatype": "Char", "valueList": ["PR"]}, {"_links": {"modelClassVariable": {"href": "/mdr/sdtm/1-8/classes/GeneralObservations/variables/USUBJID", "title": "Unique Subject Identifier", "type": "Class Variable"}, "parentDataset": {"href": "/mdr/sendig/ar-1-0/datasets/PR", "title": "Procedures", "type": "SDTM Dataset"}, "parentProduct": {"href": "/mdr/sendig/ar-1-0", "title": "Standard for Exchange of Nonclinical Data Implementation Guide: Animal Rule Version 1.0 (Final)", "type": "Implementation Guide"}, "rootItem": {"href": "/mdr/root/sendig/datasets/PR/variables/USUBJID", "title": "Version-agnostic anchor resource for SENDIG variable PR.USUBJID", "type": "Root Data Element"}, "self": {"href": "/mdr/sendig/ar-1-0/datasets/PR/variables/USUBJID", "title": "Unique Subject Identifier", "type": "SDTM Dataset Variable"}}, "core": "Req", "description": "Identifier used to uniquely identify a subject across all studies for all applications or submissions involving the product.", "label": "Unique Subject Identifier", "name": "USUBJID", "ordinal": "3", "role": "Identifier", "simpleDatatype": "Char"}, {"_links": {"modelClassVariable": {"href": "/mdr/sdtm/1-8/classes/GeneralObservations/variables/--SEQ", "title": "Sequence Number", "type": "Class Variable"}, "parentDataset": {"href": "/mdr/sendig/ar-1-0/datasets/PR", "title": "Procedures", "type": "SDTM Dataset"}, "parentProduct": {"href": "/mdr/sendig/ar-1-0", "title": "Standard for Exchange of Nonclinical Data Implementation Guide: Animal Rule Version 1.0 (Final)", "type": "Implementation Guide"}, "rootItem": {"href": "/mdr/root/sendig/datasets/PR/variables/PRSEQ", "title": "Version-agnostic anchor resource for SENDIG variable PR.PRSEQ", "type": "Root Data Element"}, "self": {"href": "/mdr/sendig/ar-1-0/datasets/PR/variables/PRSEQ", "title": "Sequence Number", "type": "SDTM Dataset Variable"}}, "core": "Req", "description": "Sequence number to ensure uniqueness of records within a dataset for a subject. Should be assigned to be in a consistent chronological order.", "label": "Sequence Number", "name": "PRSEQ", "ordinal": "4", "role": "Identifier", "simpleDatatype": "Num"}, {"_links": {"modelClassVariable": {"href": "/mdr/sdtm/1-8/classes/GeneralObservations/variables/--GRPID", "title": "Group ID", "type": "Class Variable"}, "parentDataset": {"href": "/mdr/sendig/ar-1-0/datasets/PR", "title": "Procedures", "type": "SDTM Dataset"}, "parentProduct": {"href": "/mdr/sendig/ar-1-0", "title": "Standard for Exchange of Nonclinical Data Implementation Guide: Animal Rule Version 1.0 (Final)", "type": "Implementation Guide"}, "rootItem": {"href": "/mdr/root/sendig/datasets/PR/variables/PRGRPID", "title": "Version-agnostic anchor resource for SENDIG variable PR.PRGRPID", "type": "Root Data Element"}, "self": {"href": "/mdr/sendig/ar-1-0/datasets/PR/variables/PRGRPID", "title": "Group ID", "type": "SDTM Dataset Variable"}}, "core": "Perm", "description": "Used to link together a block of related records within a subject in a domain.", "label": "Group ID", "name": "PRGRPID", "ordinal": "5", "role": "Identifier", "simpleDatatype": "Char"}, {"_links": {"modelClassVariable": {"href": "/mdr/sdtm/1-8/classes/GeneralObservations/variables/--SPID", "title": "Sponsor-Defined Identifier", "type": "Class Variable"}, "parentDataset": {"href": "/mdr/sendig/ar-1-0/datasets/PR", "title": "Procedures", "type": "SDTM Dataset"}, "parentProduct": {"href": "/mdr/sendig/ar-1-0", "title": "Standard for Exchange of Nonclinical Data Implementation Guide: Animal Rule Version 1.0 (Final)", "type": "Implementation Guide"}, "rootItem": {"href": "/mdr/root/sendig/datasets/PR/variables/PRSPID", "title": "Version-agnostic anchor resource for SENDIG variable PR.PRSPID", "type": "Root Data Element"}, "self": {"href": "/mdr/sendig/ar-1-0/datasets/PR/variables/PRSPID", "title": "Sponsor-Defined Identifier", "type": "SDTM Dataset Variable"}}, "core": "Perm", "description": "Sponsor-defined identifier.", "label": "Sponsor-Defined Identifier", "name": "PRSPID", "ordinal": "6", "role": "Identifier", "simpleDatatype": "Char"}, {"_links": {"modelClassVariable": {"href": "/mdr/sdtm/1-8/classes/GeneralObservations/variables/--LNKID", "title": "Link ID", "type": "Class Variable"}, "parentDataset": {"href": "/mdr/sendig/ar-1-0/datasets/PR", "title": "Procedures", "type": "SDTM Dataset"}, "parentProduct": {"href": "/mdr/sendig/ar-1-0", "title": "Standard for Exchange of Nonclinical Data Implementation Guide: Animal Rule Version 1.0 (Final)", "type": "Implementation Guide"}, "rootItem": {"href": "/mdr/root/sendig/datasets/PR/variables/PRLNKID", "title": "Version-agnostic anchor resource for SENDIG variable PR.PRLNKID", "type": "Root Data Element"}, "self": {"href": "/mdr/sendig/ar-1-0/datasets/PR/variables/PRLNKID", "title": "Link ID", "type": "SDTM Dataset Variable"}}, "core": "Perm", "description": "Used to facilitate identification of relationships between records.", "label": "Link ID", "name": "PRLNKID", "ordinal": "7", "role": "Identifier", "simpleDatatype": "Char"}, {"_links": {"modelClassVariable": {"href": "/mdr/sdtm/1-8/classes/GeneralObservations/variables/--LNKGRP", "title": "Link Group ID", "type": "Class Variable"}, "parentDataset": {"href": "/mdr/sendig/ar-1-0/datasets/PR", "title": "Procedures", "type": "SDTM Dataset"}, "parentProduct": {"href": "/mdr/sendig/ar-1-0", "title": "Standard for Exchange of Nonclinical Data Implementation Guide: Animal Rule Version 1.0 (Final)", "type": "Implementation Guide"}, "rootItem": {"href": "/mdr/root/sendig/datasets/PR/variables/PRLNKGRP", "title": "Version-agnostic anchor resource for SENDIG variable PR.PRLNKGRP", "type": "Root Data Element"}, "self": {"href": "/mdr/sendig/ar-1-0/datasets/PR/variables/PRLNKGRP", "title": "Link Group ID", "type": "SDTM Dataset Variable"}}, "core": "Perm", "description": "Used to facilitate identification of relationships between records.", "label": "Link Group ID", "name": "PRLNKGRP", "ordinal": "8", "role": "Identifier", "simpleDatatype": "Char"}, {"_links": {"modelClassVariable": {"href": "/mdr/sdtm/1-8/classes/Interventions/variables/--TRT", "title": "Name of Treatment", "type": "Class Variable"}, "parentDataset": {"href": "/mdr/sendig/ar-1-0/datasets/PR", "title": "Procedures", "type": "SDTM Dataset"}, "parentProduct": {"href": "/mdr/sendig/ar-1-0", "title": "Standard for Exchange of Nonclinical Data Implementation Guide: Animal Rule Version 1.0 (Final)", "type": "Implementation Guide"}, "rootItem": {"href": "/mdr/root/sendig/datasets/PR/variables/PRTRT", "title": "Version-agnostic anchor resource for SENDIG variable PR.PRTRT", "type": "Root Data Element"}, "self": {"href": "/mdr/sendig/ar-1-0/datasets/PR/variables/PRTRT", "title": "Reported Name of Procedure", "type": "SDTM Dataset Variable"}}, "core": "Req", "description": "Name of procedure performed.", "label": "Reported Name of Procedure", "name": "PRTRT", "ordinal": "9", "role": "Topic", "simpleDatatype": "Char"}, {"_links": {"modelClassVariable": {"href": "/mdr/sdtm/1-8/classes/Interventions/variables/--DECOD", "title": "Standardized Treatment Name", "type": "Class Variable"}, "parentDataset": {"href": "/mdr/sendig/ar-1-0/datasets/PR", "title": "Procedures", "type": "SDTM Dataset"}, "parentProduct": {"href": "/mdr/sendig/ar-1-0", "title": "Standard for Exchange of Nonclinical Data Implementation Guide: Animal Rule Version 1.0 (Final)", "type": "Implementation Guide"}, "rootItem": {"href": "/mdr/root/sendig/datasets/PR/variables/PRDECOD", "title": "Version-agnostic anchor resource for SENDIG variable PR.PRDECOD", "type": "Root Data Element"}, "self": {"href": "/mdr/sendig/ar-1-0/datasets/PR/variables/PRDECOD", "title": "Standardized Procedure Name", "type": "SDTM Dataset Variable"}}, "core": "Perm", "description": "Standardized or dictionary-derived name of PRTRT. The sponsor is expected to provide the dictionary name and version used to map the terms in the external codelist element in the Define-XML document. If an intervention term does not have a decode value in the dictionary, then PRDECOD will be null.", "label": "Standardized Procedure Name", "name": "PRDECOD", "ordinal": "10", "role": "Synonym Qualifier", "simpleDatatype": "Char"}, {"_links": {"modelClassVariable": {"href": "/mdr/sdtm/1-8/classes/Interventions/variables/--CAT", "title": "Category", "type": "Class Variable"}, "parentDataset": {"href": "/mdr/sendig/ar-1-0/datasets/PR", "title": "Procedures", "type": "SDTM Dataset"}, "parentProduct": {"href": "/mdr/sendig/ar-1-0", "title": "Standard for Exchange of Nonclinical Data Implementation Guide: Animal Rule Version 1.0 (Final)", "type": "Implementation Guide"}, "rootItem": {"href": "/mdr/root/sendig/datasets/PR/variables/PRCAT", "title": "Version-agnostic anchor resource for SENDIG variable PR.PRCAT", "type": "Root Data Element"}, "self": {"href": "/mdr/sendig/ar-1-0/datasets/PR/variables/PRCAT", "title": "Category", "type": "SDTM Dataset Variable"}}, "core": "Perm", "description": "Used to define a category of procedure values.", "label": "Category", "name": "PRCAT", "ordinal": "11", "role": "Grouping Qualifier", "simpleDatatype": "Char"}, {"_links": {"modelClassVariable": {"href": "/mdr/sdtm/1-8/classes/Interventions/variables/--SCAT", "title": "Subcategory", "type": "Class Variable"}, "parentDataset": {"href": "/mdr/sendig/ar-1-0/datasets/PR", "title": "Procedures", "type": "SDTM Dataset"}, "parentProduct": {"href": "/mdr/sendig/ar-1-0", "title": "Standard for Exchange of Nonclinical Data Implementation Guide: Animal Rule Version 1.0 (Final)", "type": "Implementation Guide"}, "rootItem": {"href": "/mdr/root/sendig/datasets/PR/variables/PRSCAT", "title": "Version-agnostic anchor resource for SENDIG variable PR.PRSCAT", "type": "Root Data Element"}, "self": {"href": "/mdr/sendig/ar-1-0/datasets/PR/variables/PRSCAT", "title": "Subcategory", "type": "SDTM Dataset Variable"}}, "core": "Perm", "description": "Used to define a further categorization of PRCAT values.", "label": "Subcategory", "name": "PRSCAT", "ordinal": "12", "role": "Grouping Qualifier", "simpleDatatype": "Char"}, {"_links": {"codelist": [{"href": "/mdr/root/ct/sendct/codelists/C66742", "title": "Version-agnostic anchor resource for codelist C66742", "type": "Root Value Domain"}], "modelClassVariable": {"href": "/mdr/sdtm/1-8/classes/Interventions/variables/--PRESP", "title": "Pre-specified", "type": "Class Variable"}, "parentDataset": {"href": "/mdr/sendig/ar-1-0/datasets/PR", "title": "Procedures", "type": "SDTM Dataset"}, "parentProduct": {"href": "/mdr/sendig/ar-1-0", "title": "Standard for Exchange of Nonclinical Data Implementation Guide: Animal Rule Version 1.0 (Final)", "type": "Implementation Guide"}, "rootItem": {"href": "/mdr/root/sendig/datasets/PR/variables/PRPRESP", "title": "Version-agnostic anchor resource for SENDIG variable PR.PRPRESP", "type": "Root Data Element"}, "self": {"href": "/mdr/sendig/ar-1-0/datasets/PR/variables/PRPRESP", "title": "Pre-specified", "type": "SDTM Dataset Variable"}}, "core": "Perm", "description": "Used when a specific procedure is prespecified. Values should be \"Y\" or null.", "label": "Pre-specified", "name": "PRPRESP", "ordinal": "13", "role": "Variable Qualifier", "simpleDatatype": "Char"}, {"_links": {"codelist": [{"href": "/mdr/root/ct/sendct/codelists/C66742", "title": "Version-agnostic anchor resource for codelist C66742", "type": "Root Value Domain"}], "modelClassVariable": {"href": "/mdr/sdtm/1-8/classes/Interventions/variables/--OCCUR", "title": "Occurrence Indicator", "type": "Class Variable"}, "parentDataset": {"href": "/mdr/sendig/ar-1-0/datasets/PR", "title": "Procedures", "type": "SDTM Dataset"}, "parentProduct": {"href": "/mdr/sendig/ar-1-0", "title": "Standard for Exchange of Nonclinical Data Implementation Guide: Animal Rule Version 1.0 (Final)", "type": "Implementation Guide"}, "rootItem": {"href": "/mdr/root/sendig/datasets/PR/variables/PROCCUR", "title": "Version-agnostic anchor resource for SENDIG variable PR.PROCCUR", "type": "Root Data Element"}, "self": {"href": "/mdr/sendig/ar-1-0/datasets/PR/variables/PROCCUR", "title": "Occurrence", "type": "SDTM Dataset Variable"}}, "core": "Perm", "description": "Used to record whether a prespecified procedure occurred when information about the occurrence of a specific procedure is solicited.", "label": "Occurrence", "name": "PROCCUR", "ordinal": "14", "role": "Record Qualifier", "simpleDatatype": "Char"}, {"_links": {"modelClassVariable": {"href": "/mdr/sdtm/1-8/classes/Interventions/variables/--INDC", "title": "Indication", "type": "Class Variable"}, "parentDataset": {"href": "/mdr/sendig/ar-1-0/datasets/PR", "title": "Procedures", "type": "SDTM Dataset"}, "parentProduct": {"href": "/mdr/sendig/ar-1-0", "title": "Standard for Exchange of Nonclinical Data Implementation Guide: Animal Rule Version 1.0 (Final)", "type": "Implementation Guide"}, "rootItem": {"href": "/mdr/root/sendig/datasets/PR/variables/PRINDC", "title": "Version-agnostic anchor resource for SENDIG variable PR.PRINDC", "type": "Root Data Element"}, "self": {"href": "/mdr/sendig/ar-1-0/datasets/PR/variables/PRINDC", "title": "Indication", "type": "SDTM Dataset Variable"}}, "core": "Perm", "description": "Denotes the indication for the procedure.", "label": "Indication", "name": "PRINDC", "ordinal": "15", "role": "Record Qualifier", "simpleDatatype": "Char"}, {"_links": {"modelClassVariable": {"href": "/mdr/sdtm/1-8/classes/Interventions/variables/--DOSE", "title": "Dose", "type": "Class Variable"}, "parentDataset": {"href": "/mdr/sendig/ar-1-0/datasets/PR", "title": "Procedures", "type": "SDTM Dataset"}, "parentProduct": {"href": "/mdr/sendig/ar-1-0", "title": "Standard for Exchange of Nonclinical Data Implementation Guide: Animal Rule Version 1.0 (Final)", "type": "Implementation Guide"}, "rootItem": {"href": "/mdr/root/sendig/datasets/PR/variables/PRDOSE", "title": "Version-agnostic anchor resource for SENDIG variable PR.PRDOSE", "type": "Root Data Element"}, "self": {"href": "/mdr/sendig/ar-1-0/datasets/PR/variables/PRDOSE", "title": "Dose", "type": "SDTM Dataset Variable"}}, "core": "Perm", "description": "Amount of PRTRT administered. Not populated when PRDOSTXT is populated.", "label": "Dose", "name": "PRDOSE", "ordinal": "16", "role": "Record Qualifier", "simpleDatatype": "Num"}, {"_links": {"modelClassVariable": {"href": "/mdr/sdtm/1-8/classes/Interventions/variables/--DOSTXT", "title": "Dose Description", "type": "Class Variable"}, "parentDataset": {"href": "/mdr/sendig/ar-1-0/datasets/PR", "title": "Procedures", "type": "SDTM Dataset"}, "parentProduct": {"href": "/mdr/sendig/ar-1-0", "title": "Standard for Exchange of Nonclinical Data Implementation Guide: Animal Rule Version 1.0 (Final)", "type": "Implementation Guide"}, "rootItem": {"href": "/mdr/root/sendig/datasets/PR/variables/PRDOSTXT", "title": "Version-agnostic anchor resource for SENDIG variable PR.PRDOSTXT", "type": "Root Data Element"}, "self": {"href": "/mdr/sendig/ar-1-0/datasets/PR/variables/PRDOSTXT", "title": "Dose Description", "type": "SDTM Dataset Variable"}}, "core": "Perm", "description": "Dosing information collected in text form. Examples: \"<1\", \"200-400\". Not populated when PRDOSE is populated.", "label": "Dose Description", "name": "PRDOSTXT", "ordinal": "17", "role": "Record Qualifier", "simpleDatatype": "Char"}, {"_links": {"codelist": [{"href": "/mdr/root/ct/sendct/codelists/C71620", "title": "Version-agnostic anchor resource for codelist C71620", "type": "Root Value Domain"}], "modelClassVariable": {"href": "/mdr/sdtm/1-8/classes/Interventions/variables/--DOSU", "title": "Dose Units", "type": "Class Variable"}, "parentDataset": {"href": "/mdr/sendig/ar-1-0/datasets/PR", "title": "Procedures", "type": "SDTM Dataset"}, "parentProduct": {"href": "/mdr/sendig/ar-1-0", "title": "Standard for Exchange of Nonclinical Data Implementation Guide: Animal Rule Version 1.0 (Final)", "type": "Implementation Guide"}, "rootItem": {"href": "/mdr/root/sendig/datasets/PR/variables/PRDOSU", "title": "Version-agnostic anchor resource for SENDIG variable PR.PRDOSU", "type": "Root Data Element"}, "self": {"href": "/mdr/sendig/ar-1-0/datasets/PR/variables/PRDOSU", "title": "Dose Units", "type": "SDTM Dataset Variable"}}, "core": "Perm", "description": "Units for PRDOSE, PRDOSTOT, or PRDOSTXT.", "label": "Dose Units", "name": "PRDOSU", "ordinal": "18", "role": "Variable Qualifier", "simpleDatatype": "Char"}, {"_links": {"codelist": [{"href": "/mdr/root/ct/sendct/codelists/C66726", "title": "Version-agnostic anchor resource for codelist C66726", "type": "Root Value Domain"}], "modelClassVariable": {"href": "/mdr/sdtm/1-8/classes/Interventions/variables/--DOSFRM", "title": "Dose Form", "type": "Class Variable"}, "parentDataset": {"href": "/mdr/sendig/ar-1-0/datasets/PR", "title": "Procedures", "type": "SDTM Dataset"}, "parentProduct": {"href": "/mdr/sendig/ar-1-0", "title": "Standard for Exchange of Nonclinical Data Implementation Guide: Animal Rule Version 1.0 (Final)", "type": "Implementation Guide"}, "rootItem": {"href": "/mdr/root/sendig/datasets/PR/variables/PRDOSFRM", "title": "Version-agnostic anchor resource for SENDIG variable PR.PRDOSFRM", "type": "Root Data Element"}, "self": {"href": "/mdr/sendig/ar-1-0/datasets/PR/variables/PRDOSFRM", "title": "Dose Form", "type": "SDTM Dataset Variable"}}, "core": "Perm", "description": "Dose form for PRTRT.", "label": "Dose Form", "name": "PRDOSFRM", "ordinal": "19", "role": "Variable Qualifier", "simpleDatatype": "Char"}, {"_links": {"codelist": [{"href": "/mdr/root/ct/sendct/codelists/C71113", "title": "Version-agnostic anchor resource for codelist C71113", "type": "Root Value Domain"}], "modelClassVariable": {"href": "/mdr/sdtm/1-8/classes/Interventions/variables/--DOSFRQ", "title": "Dosing Frequency per Interval", "type": "Class Variable"}, "parentDataset": {"href": "/mdr/sendig/ar-1-0/datasets/PR", "title": "Procedures", "type": "SDTM Dataset"}, "parentProduct": {"href": "/mdr/sendig/ar-1-0", "title": "Standard for Exchange of Nonclinical Data Implementation Guide: Animal Rule Version 1.0 (Final)", "type": "Implementation Guide"}, "rootItem": {"href": "/mdr/root/sendig/datasets/PR/variables/PRDOSFRQ", "title": "Version-agnostic anchor resource for SENDIG variable PR.PRDOSFRQ", "type": "Root Data Element"}, "self": {"href": "/mdr/sendig/ar-1-0/datasets/PR/variables/PRDOSFRQ", "title": "Dosing Frequency per Interval", "type": "SDTM Dataset Variable"}}, "core": "Perm", "description": "Usually expressed as the number of doses administered per a specific interval.", "label": "Dosing Frequency per Interval", "name": "PRDOSFRQ", "ordinal": "20", "role": "Variable Qualifier", "simpleDatatype": "Char"}, {"_links": {"modelClassVariable": {"href": "/mdr/sdtm/1-8/classes/Interventions/variables/--DOSRGM", "title": "Intended Dose Regimen", "type": "Class Variable"}, "parentDataset": {"href": "/mdr/sendig/ar-1-0/datasets/PR", "title": "Procedures", "type": "SDTM Dataset"}, "parentProduct": {"href": "/mdr/sendig/ar-1-0", "title": "Standard for Exchange of Nonclinical Data Implementation Guide: Animal Rule Version 1.0 (Final)", "type": "Implementation Guide"}, "rootItem": {"href": "/mdr/root/sendig/datasets/PR/variables/PRDOSRGM", "title": "Version-agnostic anchor resource for SENDIG variable PR.PRDOSRGM", "type": "Root Data Element"}, "self": {"href": "/mdr/sendig/ar-1-0/datasets/PR/variables/PRDOSRGM", "title": "Intended Dose Regimen", "type": "SDTM Dataset Variable"}}, "core": "Perm", "description": "Text description of the intended schedule or regimen for the procedure.", "label": "Intended Dose Regimen", "name": "PRDOSRGM", "ordinal": "21", "role": "Variable Qualifier", "simpleDatatype": "Char"}, {"_links": {"codelist": [{"href": "/mdr/root/ct/sendct/codelists/C66729", "title": "Version-agnostic anchor resource for codelist C66729", "type": "Root Value Domain"}], "modelClassVariable": {"href": "/mdr/sdtm/1-8/classes/Interventions/variables/--ROUTE", "title": "Route of Administration", "type": "Class Variable"}, "parentDataset": {"href": "/mdr/sendig/ar-1-0/datasets/PR", "title": "Procedures", "type": "SDTM Dataset"}, "parentProduct": {"href": "/mdr/sendig/ar-1-0", "title": "Standard for Exchange of Nonclinical Data Implementation Guide: Animal Rule Version 1.0 (Final)", "type": "Implementation Guide"}, "rootItem": {"href": "/mdr/root/sendig/datasets/PR/variables/PRROUTE", "title": "Version-agnostic anchor resource for SENDIG variable PR.PRROUTE", "type": "Root Data Element"}, "self": {"href": "/mdr/sendig/ar-1-0/datasets/PR/variables/PRROUTE", "title": "Route of Administration", "type": "SDTM Dataset Variable"}}, "core": "Perm", "description": "Route of administration for PRTRT.", "label": "Route of Administration", "name": "PRROUTE", "ordinal": "22", "role": "Variable Qualifier", "simpleDatatype": "Char"}, {"_links": {"codelist": [{"href": "/mdr/root/ct/sendct/codelists/C74456", "title": "Version-agnostic anchor resource for codelist C74456", "type": "Root Value Domain"}], "modelClassVariable": {"href": "/mdr/sdtm/1-8/classes/Interventions/variables/--LOC", "title": "Location of Dose Administration", "type": "Class Variable"}, "parentDataset": {"href": "/mdr/sendig/ar-1-0/datasets/PR", "title": "Procedures", "type": "SDTM Dataset"}, "parentProduct": {"href": "/mdr/sendig/ar-1-0", "title": "Standard for Exchange of Nonclinical Data Implementation Guide: Animal Rule Version 1.0 (Final)", "type": "Implementation Guide"}, "rootItem": {"href": "/mdr/root/sendig/datasets/PR/variables/PRLOC", "title": "Version-agnostic anchor resource for SENDIG variable PR.PRLOC", "type": "Root Data Element"}, "self": {"href": "/mdr/sendig/ar-1-0/datasets/PR/variables/PRLOC", "title": "Location of Procedure", "type": "SDTM Dataset Variable"}}, "core": "Perm", "description": "Anatomical location of a procedure.", "label": "Location of Procedure", "name": "PRLOC", "ordinal": "23", "role": "Record Qualifier", "simpleDatatype": "Char"}, {"_links": {"codelist": [{"href": "/mdr/root/ct/sendct/codelists/C99073", "title": "Version-agnostic anchor resource for codelist C99073", "type": "Root Value Domain"}], "modelClassVariable": {"href": "/mdr/sdtm/1-8/classes/Interventions/variables/--LAT", "title": "Laterality", "type": "Class Variable"}, "parentDataset": {"href": "/mdr/sendig/ar-1-0/datasets/PR", "title": "Procedures", "type": "SDTM Dataset"}, "parentProduct": {"href": "/mdr/sendig/ar-1-0", "title": "Standard for Exchange of Nonclinical Data Implementation Guide: Animal Rule Version 1.0 (Final)", "type": "Implementation Guide"}, "rootItem": {"href": "/mdr/root/sendig/datasets/PR/variables/PRLAT", "title": "Version-agnostic anchor resource for SENDIG variable PR.PRLAT", "type": "Root Data Element"}, "self": {"href": "/mdr/sendig/ar-1-0/datasets/PR/variables/PRLAT", "title": "Laterality", "type": "SDTM Dataset Variable"}}, "core": "Perm", "description": "Qualifier for anatomical location or specimen further detailing laterality.", "label": "Laterality", "name": "PRLAT", "ordinal": "24", "role": "Variable Qualifier", "simpleDatatype": "Char"}, {"_links": {"codelist": [{"href": "/mdr/root/ct/sendct/codelists/C99074", "title": "Version-agnostic anchor resource for codelist C99074", "type": "Root Value Domain"}], "modelClassVariable": {"href": "/mdr/sdtm/1-8/classes/Interventions/variables/--DIR", "title": "Directionality", "type": "Class Variable"}, "parentDataset": {"href": "/mdr/sendig/ar-1-0/datasets/PR", "title": "Procedures", "type": "SDTM Dataset"}, "parentProduct": {"href": "/mdr/sendig/ar-1-0", "title": "Standard for Exchange of Nonclinical Data Implementation Guide: Animal Rule Version 1.0 (Final)", "type": "Implementation Guide"}, "rootItem": {"href": "/mdr/root/sendig/datasets/PR/variables/PRDIR", "title": "Version-agnostic anchor resource for SENDIG variable PR.PRDIR", "type": "Root Data Element"}, "self": {"href": "/mdr/sendig/ar-1-0/datasets/PR/variables/PRDIR", "title": "Directionality", "type": "SDTM Dataset Variable"}}, "core": "Perm", "description": "Qualifier for anatomical location or specimen further detailing directionality.", "label": "Directionality", "name": "PRDIR", "ordinal": "25", "role": "Variable Qualifier", "simpleDatatype": "Char"}, {"_links": {"codelist": [{"href": "/mdr/root/ct/sendct/codelists/C99075", "title": "Version-agnostic anchor resource for codelist C99075", "type": "Root Value Domain"}], "modelClassVariable": {"href": "/mdr/sdtm/1-8/classes/Interventions/variables/--PORTOT", "title": "Portion or Totality", "type": "Class Variable"}, "parentDataset": {"href": "/mdr/sendig/ar-1-0/datasets/PR", "title": "Procedures", "type": "SDTM Dataset"}, "parentProduct": {"href": "/mdr/sendig/ar-1-0", "title": "Standard for Exchange of Nonclinical Data Implementation Guide: Animal Rule Version 1.0 (Final)", "type": "Implementation Guide"}, "rootItem": {"href": "/mdr/root/sendig/datasets/PR/variables/PRPORTOT", "title": "Version-agnostic anchor resource for SENDIG variable PR.PRPORTOT", "type": "Root Data Element"}, "self": {"href": "/mdr/sendig/ar-1-0/datasets/PR/variables/PRPORTOT", "title": "Portion or Totality", "type": "SDTM Dataset Variable"}}, "core": "Perm", "description": "Qualifier for anatomical location or specimen further detailing the portion or totality, which means arrangement of, or apportioning of an entity.", "label": "Portion or Totality", "name": "PRPORTOT", "ordinal": "26", "role": "Variable Qualifier", "simpleDatatype": "Char"}, {"_links": {"codelist": [{"href": "/mdr/root/ct/sendct/codelists/C66742", "title": "Version-agnostic anchor resource for codelist C66742", "type": "Root Value Domain"}], "modelClassVariable": {"href": "/mdr/sdtm/1-8/classes/Interventions/variables/--RSTIND", "title": "Restraint Indicator", "type": "Class Variable"}, "parentDataset": {"href": "/mdr/sendig/ar-1-0/datasets/PR", "title": "Procedures", "type": "SDTM Dataset"}, "parentProduct": {"href": "/mdr/sendig/ar-1-0", "title": "Standard for Exchange of Nonclinical Data Implementation Guide: Animal Rule Version 1.0 (Final)", "type": "Implementation Guide"}, "rootItem": {"href": "/mdr/root/sendig/datasets/PR/variables/PRRSTIND", "title": "Version-agnostic anchor resource for SENDIG variable PR.PRRSTIND", "type": "Root Data Element"}, "self": {"href": "/mdr/sendig/ar-1-0/datasets/PR/variables/PRRSTIND", "title": "Restraint Indicator", "type": "SDTM Dataset Variable"}}, "core": "Exp", "description": "An indicator as to whether the subject was restrained during the intervention period.", "label": "Restraint Indicator", "name": "PRRSTIND", "ordinal": "27", "role": "Record Qualifier", "simpleDatatype": "Char"}, {"_links": {"codelist": [{"href": "/mdr/root/ct/sendct/codelists/C158123", "title": "Version-agnostic anchor resource for codelist C158123", "type": "Root Value Domain"}], "modelClassVariable": {"href": "/mdr/sdtm/1-8/classes/Interventions/variables/--RSTMOD", "title": "Restraint Mode", "type": "Class Variable"}, "parentDataset": {"href": "/mdr/sendig/ar-1-0/datasets/PR", "title": "Procedures", "type": "SDTM Dataset"}, "parentProduct": {"href": "/mdr/sendig/ar-1-0", "title": "Standard for Exchange of Nonclinical Data Implementation Guide: Animal Rule Version 1.0 (Final)", "type": "Implementation Guide"}, "rootItem": {"href": "/mdr/root/sendig/datasets/PR/variables/PRRSTMOD", "title": "Version-agnostic anchor resource for SENDIG variable PR.PRRSTMOD", "type": "Root Data Element"}, "self": {"href": "/mdr/sendig/ar-1-0/datasets/PR/variables/PRRSTMOD", "title": "Restraint Mode", "type": "SDTM Dataset Variable"}}, "core": "Exp", "description": "A description of whether the restraint was physical and/or chemical.", "label": "Restraint Mode", "name": "PRRSTMOD", "ordinal": "28", "role": "Record Qualifier", "simpleDatatype": "Char"}, {"_links": {"modelClassVariable": {"href": "/mdr/sdtm/1-8/classes/GeneralObservations/variables/--STDTC", "title": "Start Date/Time of Observation", "type": "Class Variable"}, "parentDataset": {"href": "/mdr/sendig/ar-1-0/datasets/PR", "title": "Procedures", "type": "SDTM Dataset"}, "parentProduct": {"href": "/mdr/sendig/ar-1-0", "title": "Standard for Exchange of Nonclinical Data Implementation Guide: Animal Rule Version 1.0 (Final)", "type": "Implementation Guide"}, "rootItem": {"href": "/mdr/root/sendig/datasets/PR/variables/PRSTDTC", "title": "Version-agnostic anchor resource for SENDIG variable PR.PRSTDTC", "type": "Root Data Element"}, "self": {"href": "/mdr/sendig/ar-1-0/datasets/PR/variables/PRSTDTC", "title": "Start Date/Time of Procedure", "type": "SDTM Dataset Variable"}}, "core": "Exp", "describedValueDomain": "ISO 8601", "description": "Start date/time of the procedure represented in ISO 8601 character format.", "label": "Start Date/Time of Procedure", "name": "PRSTDTC", "ordinal": "29", "role": "Timing", "simpleDatatype": "Char"}, {"_links": {"modelClassVariable": {"href": "/mdr/sdtm/1-8/classes/GeneralObservations/variables/--ENDTC", "title": "End Date/Time of Observation", "type": "Class Variable"}, "parentDataset": {"href": "/mdr/sendig/ar-1-0/datasets/PR", "title": "Procedures", "type": "SDTM Dataset"}, "parentProduct": {"href": "/mdr/sendig/ar-1-0", "title": "Standard for Exchange of Nonclinical Data Implementation Guide: Animal Rule Version 1.0 (Final)", "type": "Implementation Guide"}, "rootItem": {"href": "/mdr/root/sendig/datasets/PR/variables/PRENDTC", "title": "Version-agnostic anchor resource for SENDIG variable PR.PRENDTC", "type": "Root Data Element"}, "self": {"href": "/mdr/sendig/ar-1-0/datasets/PR/variables/PRENDTC", "title": "End Date/Time of Procedure", "type": "SDTM Dataset Variable"}}, "core": "Perm", "describedValueDomain": "ISO 8601", "description": "End date/time of the procedure represented in ISO 8601 character format.", "label": "End Date/Time of Procedure", "name": "PRENDTC", "ordinal": "30", "role": "Timing", "simpleDatatype": "Char"}, {"_links": {"modelClassVariable": {"href": "/mdr/sdtm/1-8/classes/GeneralObservations/variables/--STDY", "title": "Study Day of Start of Observation", "type": "Class Variable"}, "parentDataset": {"href": "/mdr/sendig/ar-1-0/datasets/PR", "title": "Procedures", "type": "SDTM Dataset"}, "parentProduct": {"href": "/mdr/sendig/ar-1-0", "title": "Standard for Exchange of Nonclinical Data Implementation Guide: Animal Rule Version 1.0 (Final)", "type": "Implementation Guide"}, "rootItem": {"href": "/mdr/root/sendig/datasets/PR/variables/PRSTDY", "title": "Version-agnostic anchor resource for SENDIG variable PR.PRSTDY", "type": "Root Data Element"}, "self": {"href": "/mdr/sendig/ar-1-0/datasets/PR/variables/PRSTDY", "title": "Study Day of Start of Procedure", "type": "SDTM Dataset Variable"}}, "core": "Perm", "description": "Study day of start of procedure expressed in integer days relative to the sponsor-defined RFSTDTC in Demographics.", "label": "Study Day of Start of Procedure", "name": "PRSTDY", "ordinal": "31", "role": "Timing", "simpleDatatype": "Num"}, {"_links": {"modelClassVariable": {"href": "/mdr/sdtm/1-8/classes/GeneralObservations/variables/--ENDY", "title": "Study Day of End of Observation", "type": "Class Variable"}, "parentDataset": {"href": "/mdr/sendig/ar-1-0/datasets/PR", "title": "Procedures", "type": "SDTM Dataset"}, "parentProduct": {"href": "/mdr/sendig/ar-1-0", "title": "Standard for Exchange of Nonclinical Data Implementation Guide: Animal Rule Version 1.0 (Final)", "type": "Implementation Guide"}, "rootItem": {"href": "/mdr/root/sendig/datasets/PR/variables/PRENDY", "title": "Version-agnostic anchor resource for SENDIG variable PR.PRENDY", "type": "Root Data Element"}, "self": {"href": "/mdr/sendig/ar-1-0/datasets/PR/variables/PRENDY", "title": "Study Day of End of Procedure", "type": "SDTM Dataset Variable"}}, "core": "Perm", "description": "Study day of end of procedure expressed in integer days relative to the sponsor-defined RFSTDTC in Demographics.", "label": "Study Day of End of Procedure", "name": "PRENDY", "ordinal": "32", "role": "Timing", "simpleDatatype": "Num"}, {"_links": {"modelClassVariable": {"href": "/mdr/sdtm/1-8/classes/GeneralObservations/variables/--NOMDY", "title": "Nominal Study Day for Tabulations", "type": "Class Variable"}, "parentDataset": {"href": "/mdr/sendig/ar-1-0/datasets/PR", "title": "Procedures", "type": "SDTM Dataset"}, "parentProduct": {"href": "/mdr/sendig/ar-1-0", "title": "Standard for Exchange of Nonclinical Data Implementation Guide: Animal Rule Version 1.0 (Final)", "type": "Implementation Guide"}, "rootItem": {"href": "/mdr/root/sendig/datasets/PR/variables/PRNOMDY", "title": "Version-agnostic anchor resource for SENDIG variable PR.PRNOMDY", "type": "Root Data Element"}, "self": {"href": "/mdr/sendig/ar-1-0/datasets/PR/variables/PRNOMDY", "title": "Nominal Study Day for Tabulations", "type": "SDTM Dataset Variable"}}, "core": "Exp", "description": "Nominal study day used for grouping records for observations that may occur on different days into a single reported study day. Should be an integer.", "label": "Nominal Study Day for Tabulations", "name": "PRNOMDY", "ordinal": "33", "role": "Timing", "simpleDatatype": "Num"}, {"_links": {"modelClassVariable": {"href": "/mdr/sdtm/1-8/classes/GeneralObservations/variables/--NOMLBL", "title": "Label for Nominal Study Day", "type": "Class Variable"}, "parentDataset": {"href": "/mdr/sendig/ar-1-0/datasets/PR", "title": "Procedures", "type": "SDTM Dataset"}, "parentProduct": {"href": "/mdr/sendig/ar-1-0", "title": "Standard for Exchange of Nonclinical Data Implementation Guide: Animal Rule Version 1.0 (Final)", "type": "Implementation Guide"}, "rootItem": {"href": "/mdr/root/sendig/datasets/PR/variables/PRNOMLBL", "title": "Version-agnostic anchor resource for SENDIG variable PR.PRNOMLBL", "type": "Root Data Element"}, "self": {"href": "/mdr/sendig/ar-1-0/datasets/PR/variables/PRNOMLBL", "title": "Label for Nominal Study Day", "type": "SDTM Dataset Variable"}}, "core": "Perm", "description": "A label for a given value of PRNOMDY as presented in the study report. Examples: \"Week 4\", \"Day 28\".", "label": "Label for Nominal Study Day", "name": "PRNOMLBL", "ordinal": "34", "role": "Timing", "simpleDatatype": "Char"}, {"_links": {"modelClassVariable": {"href": "/mdr/sdtm/1-8/classes/GeneralObservations/variables/--XSTDY", "title": "Start Day of Obs Relative to Exposure", "type": "Class Variable"}, "parentDataset": {"href": "/mdr/sendig/ar-1-0/datasets/PR", "title": "Procedures", "type": "SDTM Dataset"}, "parentProduct": {"href": "/mdr/sendig/ar-1-0", "title": "Standard for Exchange of Nonclinical Data Implementation Guide: Animal Rule Version 1.0 (Final)", "type": "Implementation Guide"}, "rootItem": {"href": "/mdr/root/sendig/datasets/PR/variables/PRXSTDY", "title": "Version-agnostic anchor resource for SENDIG variable PR.PRXSTDY", "type": "Root Data Element"}, "self": {"href": "/mdr/sendig/ar-1-0/datasets/PR/variables/PRXSTDY", "title": "Start Day of Proc Rel to Exposure", "type": "SDTM Dataset Variable"}}, "core": "Exp", "description": "Day of start of procedure relative to the first date of exposure to study treatment (RFXSTDTC in Demographics). Must be an integer.", "label": "Start Day of Proc Rel to Exposure", "name": "PRXSTDY", "ordinal": "35", "role": "Timing", "simpleDatatype": "Num"}, {"_links": {"modelClassVariable": {"href": "/mdr/sdtm/1-8/classes/GeneralObservations/variables/--XENDY", "title": "End Day of Obs Relative to Exposure", "type": "Class Variable"}, "parentDataset": {"href": "/mdr/sendig/ar-1-0/datasets/PR", "title": "Procedures", "type": "SDTM Dataset"}, "parentProduct": {"href": "/mdr/sendig/ar-1-0", "title": "Standard for Exchange of Nonclinical Data Implementation Guide: Animal Rule Version 1.0 (Final)", "type": "Implementation Guide"}, "rootItem": {"href": "/mdr/root/sendig/datasets/PR/variables/PRXENDY", "title": "Version-agnostic anchor resource for SENDIG variable PR.PRXENDY", "type": "Root Data Element"}, "self": {"href": "/mdr/sendig/ar-1-0/datasets/PR/variables/PRXENDY", "title": "End Day of Proc Rel to Exposure", "type": "SDTM Dataset Variable"}}, "core": "Perm", "description": "Day of end of procedure relative to the first date of exposure to study treatment (RFXSTDTC in Demographics). Must be an integer.", "label": "End Day of Proc Rel to Exposure", "name": "PRXENDY", "ordinal": "36", "role": "Timing", "simpleDatatype": "Num"}, {"_links": {"modelClassVariable": {"href": "/mdr/sdtm/1-8/classes/GeneralObservations/variables/--CHSTDY", "title": "Start Day of Obs Rel to Challenge Agent", "type": "Class Variable"}, "parentDataset": {"href": "/mdr/sendig/ar-1-0/datasets/PR", "title": "Procedures", "type": "SDTM Dataset"}, "parentProduct": {"href": "/mdr/sendig/ar-1-0", "title": "Standard for Exchange of Nonclinical Data Implementation Guide: Animal Rule Version 1.0 (Final)", "type": "Implementation Guide"}, "rootItem": {"href": "/mdr/root/sendig/datasets/PR/variables/PRCHSTDY", "title": "Version-agnostic anchor resource for SENDIG variable PR.PRCHSTDY", "type": "Root Data Element"}, "self": {"href": "/mdr/sendig/ar-1-0/datasets/PR/variables/PRCHSTDY", "title": "Start Day of Proc Rel to Chall Agent", "type": "SDTM Dataset Variable"}}, "core": "Exp", "description": "Day of start of procedure relative to the first date of exposure to challenge agent (RFCSTDTC in Demographics). Must be an integer.", "label": "Start Day of Proc Rel to Chall Agent", "name": "PRCHSTDY", "ordinal": "37", "role": "Timing", "simpleDatatype": "Num"}, {"_links": {"modelClassVariable": {"href": "/mdr/sdtm/1-8/classes/GeneralObservations/variables/--CHENDY", "title": "End Day of Obs Rel to Challenge Agent", "type": "Class Variable"}, "parentDataset": {"href": "/mdr/sendig/ar-1-0/datasets/PR", "title": "Procedures", "type": "SDTM Dataset"}, "parentProduct": {"href": "/mdr/sendig/ar-1-0", "title": "Standard for Exchange of Nonclinical Data Implementation Guide: Animal Rule Version 1.0 (Final)", "type": "Implementation Guide"}, "rootItem": {"href": "/mdr/root/sendig/datasets/PR/variables/PRCHENDY", "title": "Version-agnostic anchor resource for SENDIG variable PR.PRCHENDY", "type": "Root Data Element"}, "self": {"href": "/mdr/sendig/ar-1-0/datasets/PR/variables/PRCHENDY", "title": "End Day of Proc Rel to Chall Agent", "type": "SDTM Dataset Variable"}}, "core": "Perm", "description": "Day of end of procedure relative to the first date of exposure to challenge agent (RFCSTDTC in Demographics). Must be an integer.", "label": "End Day of Proc Rel to Chall Agent", "name": "PRCHENDY", "ordinal": "38", "role": "Timing", "simpleDatatype": "Num"}, {"_links": {"modelClassVariable": {"href": "/mdr/sdtm/1-8/classes/GeneralObservations/variables/--DUR", "title": "Duration", "type": "Class Variable"}, "parentDataset": {"href": "/mdr/sendig/ar-1-0/datasets/PR", "title": "Procedures", "type": "SDTM Dataset"}, "parentProduct": {"href": "/mdr/sendig/ar-1-0", "title": "Standard for Exchange of Nonclinical Data Implementation Guide: Animal Rule Version 1.0 (Final)", "type": "Implementation Guide"}, "rootItem": {"href": "/mdr/root/sendig/datasets/PR/variables/PRDUR", "title": "Version-agnostic anchor resource for SENDIG variable PR.PRDUR", "type": "Root Data Element"}, "self": {"href": "/mdr/sendig/ar-1-0/datasets/PR/variables/PRDUR", "title": "Duration of Procedure", "type": "SDTM Dataset Variable"}}, "core": "Perm", "describedValueDomain": "ISO 8601", "description": "Collected duration of a procedure represented in ISO 8601 character format. Used only if collected, and not derived from start and end date/times.", "label": "Duration of Procedure", "name": "PRDUR", "ordinal": "39", "role": "Timing", "simpleDatatype": "Char"}, {"_links": {"modelClassVariable": {"href": "/mdr/sdtm/1-8/classes/GeneralObservations/variables/--TPT", "title": "Planned Time Point Name", "type": "Class Variable"}, "parentDataset": {"href": "/mdr/sendig/ar-1-0/datasets/PR", "title": "Procedures", "type": "SDTM Dataset"}, "parentProduct": {"href": "/mdr/sendig/ar-1-0", "title": "Standard for Exchange of Nonclinical Data Implementation Guide: Animal Rule Version 1.0 (Final)", "type": "Implementation Guide"}, "rootItem": {"href": "/mdr/root/sendig/datasets/PR/variables/PRTPT", "title": "Version-agnostic anchor resource for SENDIG variable PR.PRTPT", "type": "Root Data Element"}, "self": {"href": "/mdr/sendig/ar-1-0/datasets/PR/variables/PRTPT", "title": "Planned Time Point Name", "type": "SDTM Dataset Variable"}}, "core": "Perm", "description": "Text description of time when a procedure should be performed. This may be represented as an elapsed time relative to a fixed reference point, such as time of last dose. See PRTPTNUM and PRTPTREF.", "label": "Planned Time Point Name", "name": "PRTPT", "ordinal": "40", "role": "Timing", "simpleDatatype": "Char"}, {"_links": {"modelClassVariable": {"href": "/mdr/sdtm/1-8/classes/GeneralObservations/variables/--TPTNUM", "title": "Planned Time Point Number", "type": "Class Variable"}, "parentDataset": {"href": "/mdr/sendig/ar-1-0/datasets/PR", "title": "Procedures", "type": "SDTM Dataset"}, "parentProduct": {"href": "/mdr/sendig/ar-1-0", "title": "Standard for Exchange of Nonclinical Data Implementation Guide: Animal Rule Version 1.0 (Final)", "type": "Implementation Guide"}, "rootItem": {"href": "/mdr/root/sendig/datasets/PR/variables/PRTPTNUM", "title": "Version-agnostic anchor resource for SENDIG variable PR.PRTPTNUM", "type": "Root Data Element"}, "self": {"href": "/mdr/sendig/ar-1-0/datasets/PR/variables/PRTPTNUM", "title": "Planned Time Point Number", "type": "SDTM Dataset Variable"}}, "core": "Perm", "description": "Numerical version of planned time point used in sorting.", "label": "Planned Time Point Number", "name": "PRTPTNUM", "ordinal": "41", "role": "Timing", "simpleDatatype": "Num"}, {"_links": {"modelClassVariable": {"href": "/mdr/sdtm/1-8/classes/GeneralObservations/variables/--ELTM", "title": "Planned Elapsed Time from Time Point Ref", "type": "Class Variable"}, "parentDataset": {"href": "/mdr/sendig/ar-1-0/datasets/PR", "title": "Procedures", "type": "SDTM Dataset"}, "parentProduct": {"href": "/mdr/sendig/ar-1-0", "title": "Standard for Exchange of Nonclinical Data Implementation Guide: Animal Rule Version 1.0 (Final)", "type": "Implementation Guide"}, "rootItem": {"href": "/mdr/root/sendig/datasets/PR/variables/PRELTM", "title": "Version-agnostic anchor resource for SENDIG variable PR.PRELTM", "type": "Root Data Element"}, "self": {"href": "/mdr/sendig/ar-1-0/datasets/PR/variables/PRELTM", "title": "Planned Elapsed Time from Time Point Ref", "type": "SDTM Dataset Variable"}}, "core": "Perm", "describedValueDomain": "ISO 8601", "description": "Planned elapsed time in ISO 8601 format relative to a planned fixed reference (PRTPTREF). This variable is useful where there are repetitive measures. Not a clock time or a date/time variable, but an interval, represented as ISO duration.", "label": "Planned Elapsed Time from Time Point Ref", "name": "PRELTM", "ordinal": "42", "role": "Timing", "simpleDatatype": "Char"}, {"_links": {"modelClassVariable": {"href": "/mdr/sdtm/1-8/classes/GeneralObservations/variables/--TPTREF", "title": "Time Point Reference", "type": "Class Variable"}, "parentDataset": {"href": "/mdr/sendig/ar-1-0/datasets/PR", "title": "Procedures", "type": "SDTM Dataset"}, "parentProduct": {"href": "/mdr/sendig/ar-1-0", "title": "Standard for Exchange of Nonclinical Data Implementation Guide: Animal Rule Version 1.0 (Final)", "type": "Implementation Guide"}, "rootItem": {"href": "/mdr/root/sendig/datasets/PR/variables/PRTPTREF", "title": "Version-agnostic anchor resource for SENDIG variable PR.PRTPTREF", "type": "Root Data Element"}, "self": {"href": "/mdr/sendig/ar-1-0/datasets/PR/variables/PRTPTREF", "title": "Time Point Reference", "type": "SDTM Dataset Variable"}}, "core": "Perm", "description": "Description of the fixed reference point referred to by PRELTM, PRTPTNUM, and PRTPT.", "label": "Time Point Reference", "name": "PRTPTREF", "ordinal": "43", "role": "Timing", "simpleDatatype": "Char"}, {"_links": {"modelClassVariable": {"href": "/mdr/sdtm/1-8/classes/GeneralObservations/variables/--RFTDTC", "title": "Date/Time of Reference Time Point", "type": "Class Variable"}, "parentDataset": {"href": "/mdr/sendig/ar-1-0/datasets/PR", "title": "Procedures", "type": "SDTM Dataset"}, "parentProduct": {"href": "/mdr/sendig/ar-1-0", "title": "Standard for Exchange of Nonclinical Data Implementation Guide: Animal Rule Version 1.0 (Final)", "type": "Implementation Guide"}, "rootItem": {"href": "/mdr/root/sendig/datasets/PR/variables/PRRFTDTC", "title": "Version-agnostic anchor resource for SENDIG variable PR.PRRFTDTC", "type": "Root Data Element"}, "self": {"href": "/mdr/sendig/ar-1-0/datasets/PR/variables/PRRFTDTC", "title": "Date/Time of Reference Time Point", "type": "SDTM Dataset Variable"}}, "core": "Perm", "describedValueDomain": "ISO 8601", "description": "Date/time for a fixed reference time point defined by PRTRTREF in ISO 8601 character format.", "label": "Date/Time of Reference Time Point", "name": "PRRFTDTC", "ordinal": "44", "role": "Timing", "simpleDatatype": "Char"}], "label": "Procedures", "name": "PR", "ordinal": "4"}], "description": "This SDTM class captures investigational, therapeutic and other treatments that are administered to the subject (with some actual or expected physiological effect) either as specified by the study protocol (e.g., exposure to study drug), coincident with the study assessment period (e.g., concomitant medications), or self-administered by the subject (such as use of alcohol, tobacco, or caffeine). (Source: CDISC Controlled Terminology, GNRLOBSC, C103374, 2018-06-29)", "label": "Interventions Observation Class", "name": "Interventions", "ordinal": "3"}, {"_links": {"modelClass": {"href": "/mdr/sdtm/1-8/classes/Events", "title": "Events Observation Class", "type": "Class"}, "parentClass": {"href": "/mdr/sendig/ar-1-0/classes/GeneralObservations", "title": "General Observation Class", "type": "Class"}, "parentProduct": {"href": "/mdr/sendig/ar-1-0", "title": "Standard for Exchange of Nonclinical Data Implementation Guide: Animal Rule Version 1.0 (Final)", "type": "Implementation Guide"}, "self": {"href": "/mdr/sendig/ar-1-0/classes/Events", "title": "Events Observation Class", "type": "Class"}}, "datasets": [{"_links": {"parentClass": {"href": "/mdr/sendig/ar-1-0/classes/Events", "title": "Events Observation Class", "type": "Class"}, "parentProduct": {"href": "/mdr/sendig/ar-1-0", "title": "Standard for Exchange of Nonclinical Data Implementation Guide: Animal Rule Version 1.0 (Final)", "type": "Implementation Guide"}, "self": {"href": "/mdr/sendig/ar-1-0/datasets/MH", "title": "Medical History", "type": "SDTM Dataset"}}, "datasetStructure": "One record per medical history event per subject", "datasetVariables": [{"_links": {"modelClassVariable": {"href": "/mdr/sdtm/1-8/classes/GeneralObservations/variables/STUDYID", "title": "Study Identifier", "type": "Class Variable"}, "parentDataset": {"href": "/mdr/sendig/ar-1-0/datasets/MH", "title": "Medical History", "type": "SDTM Dataset"}, "parentProduct": {"href": "/mdr/sendig/ar-1-0", "title": "Standard for Exchange of Nonclinical Data Implementation Guide: Animal Rule Version 1.0 (Final)", "type": "Implementation Guide"}, "rootItem": {"href": "/mdr/root/sendig/datasets/MH/variables/STUDYID", "title": "Version-agnostic anchor resource for SENDIG variable MH.STUDYID", "type": "Root Data Element"}, "self": {"href": "/mdr/sendig/ar-1-0/datasets/MH/variables/STUDYID", "title": "Study Identifier", "type": "SDTM Dataset Variable"}}, "core": "Req", "description": "Unique identifier for a study.", "label": "Study Identifier", "name": "STUDYID", "ordinal": "1", "role": "Identifier", "simpleDatatype": "Char"}, {"_links": {"modelClassVariable": {"href": "/mdr/sdtm/1-8/classes/GeneralObservations/variables/DOMAIN", "title": "Domain Abbreviation", "type": "Class Variable"}, "parentDataset": {"href": "/mdr/sendig/ar-1-0/datasets/MH", "title": "Medical History", "type": "SDTM Dataset"}, "parentProduct": {"href": "/mdr/sendig/ar-1-0", "title": "Standard for Exchange of Nonclinical Data Implementation Guide: Animal Rule Version 1.0 (Final)", "type": "Implementation Guide"}, "rootItem": {"href": "/mdr/root/sendig/datasets/MH/variables/DOMAIN", "title": "Version-agnostic anchor resource for SENDIG variable MH.DOMAIN", "type": "Root Data Element"}, "self": {"href": "/mdr/sendig/ar-1-0/datasets/MH/variables/DOMAIN", "title": "Domain Abbreviation", "type": "SDTM Dataset Variable"}}, "core": "Req", "description": "Two-character abbreviation for the domain.", "label": "Domain Abbreviation", "name": "DOMAIN", "ordinal": "2", "role": "Identifier", "simpleDatatype": "Char", "valueList": ["MH"]}, {"_links": {"modelClassVariable": {"href": "/mdr/sdtm/1-8/classes/GeneralObservations/variables/USUBJID", "title": "Unique Subject Identifier", "type": "Class Variable"}, "parentDataset": {"href": "/mdr/sendig/ar-1-0/datasets/MH", "title": "Medical History", "type": "SDTM Dataset"}, "parentProduct": {"href": "/mdr/sendig/ar-1-0", "title": "Standard for Exchange of Nonclinical Data Implementation Guide: Animal Rule Version 1.0 (Final)", "type": "Implementation Guide"}, "rootItem": {"href": "/mdr/root/sendig/datasets/MH/variables/USUBJID", "title": "Version-agnostic anchor resource for SENDIG variable MH.USUBJID", "type": "Root Data Element"}, "self": {"href": "/mdr/sendig/ar-1-0/datasets/MH/variables/USUBJID", "title": "Unique Subject Identifier", "type": "SDTM Dataset Variable"}}, "core": "Req", "description": "Identifier used to uniquely identify a subject across all studies for all applications or submissions involving the product.", "label": "Unique Subject Identifier", "name": "USUBJID", "ordinal": "3", "role": "Identifier", "simpleDatatype": "Char"}, {"_links": {"modelClassVariable": {"href": "/mdr/sdtm/1-8/classes/GeneralObservations/variables/--SEQ", "title": "Sequence Number", "type": "Class Variable"}, "parentDataset": {"href": "/mdr/sendig/ar-1-0/datasets/MH", "title": "Medical History", "type": "SDTM Dataset"}, "parentProduct": {"href": "/mdr/sendig/ar-1-0", "title": "Standard for Exchange of Nonclinical Data Implementation Guide: Animal Rule Version 1.0 (Final)", "type": "Implementation Guide"}, "rootItem": {"href": "/mdr/root/sendig/datasets/MH/variables/MHSEQ", "title": "Version-agnostic anchor resource for SENDIG variable MH.MHSEQ", "type": "Root Data Element"}, "self": {"href": "/mdr/sendig/ar-1-0/datasets/MH/variables/MHSEQ", "title": "Sequence Number", "type": "SDTM Dataset Variable"}}, "core": "Req", "description": "Sequence number given to ensure uniqueness of subject records within a domain. May be any valid number.", "label": "Sequence Number", "name": "MHSEQ", "ordinal": "4", "role": "Identifier", "simpleDatatype": "Num"}, {"_links": {"modelClassVariable": {"href": "/mdr/sdtm/1-8/classes/GeneralObservations/variables/--GRPID", "title": "Group ID", "type": "Class Variable"}, "parentDataset": {"href": "/mdr/sendig/ar-1-0/datasets/MH", "title": "Medical History", "type": "SDTM Dataset"}, "parentProduct": {"href": "/mdr/sendig/ar-1-0", "title": "Standard for Exchange of Nonclinical Data Implementation Guide: Animal Rule Version 1.0 (Final)", "type": "Implementation Guide"}, "rootItem": {"href": "/mdr/root/sendig/datasets/MH/variables/MHGRPID", "title": "Version-agnostic anchor resource for SENDIG variable MH.MHGRPID", "type": "Root Data Element"}, "self": {"href": "/mdr/sendig/ar-1-0/datasets/MH/variables/MHGRPID", "title": "Group ID", "type": "SDTM Dataset Variable"}}, "core": "Perm", "description": "Used to tie together a block of related records in a single domain for a subject.", "label": "Group ID", "name": "MHGRPID", "ordinal": "5", "role": "Identifier", "simpleDatatype": "Char"}, {"_links": {"modelClassVariable": {"href": "/mdr/sdtm/1-8/classes/GeneralObservations/variables/--REFID", "title": "Reference ID", "type": "Class Variable"}, "parentDataset": {"href": "/mdr/sendig/ar-1-0/datasets/MH", "title": "Medical History", "type": "SDTM Dataset"}, "parentProduct": {"href": "/mdr/sendig/ar-1-0", "title": "Standard for Exchange of Nonclinical Data Implementation Guide: Animal Rule Version 1.0 (Final)", "type": "Implementation Guide"}, "rootItem": {"href": "/mdr/root/sendig/datasets/MH/variables/MHREFID", "title": "Version-agnostic anchor resource for SENDIG variable MH.MHREFID", "type": "Root Data Element"}, "self": {"href": "/mdr/sendig/ar-1-0/datasets/MH/variables/MHREFID", "title": "Reference ID", "type": "SDTM Dataset Variable"}}, "core": "Perm", "description": "Internal or external medical history identifier.", "label": "Reference ID", "name": "MHREFID", "ordinal": "6", "role": "Identifier", "simpleDatatype": "Char"}, {"_links": {"modelClassVariable": {"href": "/mdr/sdtm/1-8/classes/GeneralObservations/variables/--SPID", "title": "Sponsor-Defined Identifier", "type": "Class Variable"}, "parentDataset": {"href": "/mdr/sendig/ar-1-0/datasets/MH", "title": "Medical History", "type": "SDTM Dataset"}, "parentProduct": {"href": "/mdr/sendig/ar-1-0", "title": "Standard for Exchange of Nonclinical Data Implementation Guide: Animal Rule Version 1.0 (Final)", "type": "Implementation Guide"}, "rootItem": {"href": "/mdr/root/sendig/datasets/MH/variables/MHSPID", "title": "Version-agnostic anchor resource for SENDIG variable MH.MHSPID", "type": "Root Data Element"}, "self": {"href": "/mdr/sendig/ar-1-0/datasets/MH/variables/MHSPID", "title": "Sponsor-Defined Identifier", "type": "SDTM Dataset Variable"}}, "core": "Perm", "description": "Sponsor-defined reference number.", "label": "Sponsor-Defined Identifier", "name": "MHSPID", "ordinal": "7", "role": "Identifier", "simpleDatatype": "Char"}, {"_links": {"modelClassVariable": {"href": "/mdr/sdtm/1-8/classes/Events/variables/--TERM", "title": "Reported Term", "type": "Class Variable"}, "parentDataset": {"href": "/mdr/sendig/ar-1-0/datasets/MH", "title": "Medical History", "type": "SDTM Dataset"}, "parentProduct": {"href": "/mdr/sendig/ar-1-0", "title": "Standard for Exchange of Nonclinical Data Implementation Guide: Animal Rule Version 1.0 (Final)", "type": "Implementation Guide"}, "rootItem": {"href": "/mdr/root/sendig/datasets/MH/variables/MHTERM", "title": "Version-agnostic anchor resource for SENDIG variable MH.MHTERM", "type": "Root Data Element"}, "self": {"href": "/mdr/sendig/ar-1-0/datasets/MH/variables/MHTERM", "title": "Reported Term for the Medical History", "type": "SDTM Dataset Variable"}}, "core": "Req", "description": "Verbatim term for the medical condition or event.", "label": "Reported Term for the Medical History", "name": "MHTERM", "ordinal": "8", "role": "Topic", "simpleDatatype": "Char"}, {"_links": {"modelClassVariable": {"href": "/mdr/sdtm/1-8/classes/Events/variables/--CAT", "title": "Category", "type": "Class Variable"}, "parentDataset": {"href": "/mdr/sendig/ar-1-0/datasets/MH", "title": "Medical History", "type": "SDTM Dataset"}, "parentProduct": {"href": "/mdr/sendig/ar-1-0", "title": "Standard for Exchange of Nonclinical Data Implementation Guide: Animal Rule Version 1.0 (Final)", "type": "Implementation Guide"}, "rootItem": {"href": "/mdr/root/sendig/datasets/MH/variables/MHCAT", "title": "Version-agnostic anchor resource for SENDIG variable MH.MHCAT", "type": "Root Data Element"}, "self": {"href": "/mdr/sendig/ar-1-0/datasets/MH/variables/MHCAT", "title": "Category for Medical History", "type": "SDTM Dataset Variable"}}, "core": "Perm", "description": "Used to define a category of related records. Examples: \"CARDIAC\", \"GENERAL\".", "label": "Category for Medical History", "name": "MHCAT", "ordinal": "9", "role": "Grouping Qualifier", "simpleDatatype": "Char"}, {"_links": {"modelClassVariable": {"href": "/mdr/sdtm/1-8/classes/Events/variables/--SCAT", "title": "Subcategory", "type": "Class Variable"}, "parentDataset": {"href": "/mdr/sendig/ar-1-0/datasets/MH", "title": "Medical History", "type": "SDTM Dataset"}, "parentProduct": {"href": "/mdr/sendig/ar-1-0", "title": "Standard for Exchange of Nonclinical Data Implementation Guide: Animal Rule Version 1.0 (Final)", "type": "Implementation Guide"}, "rootItem": {"href": "/mdr/root/sendig/datasets/MH/variables/MHSCAT", "title": "Version-agnostic anchor resource for SENDIG variable MH.MHSCAT", "type": "Root Data Element"}, "self": {"href": "/mdr/sendig/ar-1-0/datasets/MH/variables/MHSCAT", "title": "Subcategory for Medical History", "type": "SDTM Dataset Variable"}}, "core": "Perm", "description": "A further categorization of the condition or event.", "label": "Subcategory for Medical History", "name": "MHSCAT", "ordinal": "10", "role": "Grouping Qualifier", "simpleDatatype": "Char"}, {"_links": {"modelClassVariable": {"href": "/mdr/sdtm/1-8/classes/GeneralObservations/variables/--DTC", "title": "Date/Time of Collection", "type": "Class Variable"}, "parentDataset": {"href": "/mdr/sendig/ar-1-0/datasets/MH", "title": "Medical History", "type": "SDTM Dataset"}, "parentProduct": {"href": "/mdr/sendig/ar-1-0", "title": "Standard for Exchange of Nonclinical Data Implementation Guide: Animal Rule Version 1.0 (Final)", "type": "Implementation Guide"}, "rootItem": {"href": "/mdr/root/sendig/datasets/MH/variables/MHDTC", "title": "Version-agnostic anchor resource for SENDIG variable MH.MHDTC", "type": "Root Data Element"}, "self": {"href": "/mdr/sendig/ar-1-0/datasets/MH/variables/MHDTC", "title": "Date/Time of History Collection", "type": "SDTM Dataset Variable"}}, "core": "Perm", "describedValueDomain": "ISO 8601", "description": "Collection date and time of the medical history observation represented in ISO 8601 character format.", "label": "Date/Time of History Collection", "name": "MHDTC", "ordinal": "11", "role": "Timing", "simpleDatatype": "Char"}, {"_links": {"modelClassVariable": {"href": "/mdr/sdtm/1-8/classes/GeneralObservations/variables/--STDTC", "title": "Start Date/Time of Observation", "type": "Class Variable"}, "parentDataset": {"href": "/mdr/sendig/ar-1-0/datasets/MH", "title": "Medical History", "type": "SDTM Dataset"}, "parentProduct": {"href": "/mdr/sendig/ar-1-0", "title": "Standard for Exchange of Nonclinical Data Implementation Guide: Animal Rule Version 1.0 (Final)", "type": "Implementation Guide"}, "rootItem": {"href": "/mdr/root/sendig/datasets/MH/variables/MHSTDTC", "title": "Version-agnostic anchor resource for SENDIG variable MH.MHSTDTC", "type": "Root Data Element"}, "self": {"href": "/mdr/sendig/ar-1-0/datasets/MH/variables/MHSTDTC", "title": "Start Date/Time of Medical History Event", "type": "SDTM Dataset Variable"}}, "core": "Perm", "describedValueDomain": "ISO 8601", "description": "Start date/time of the medical history event represented in ISO 8601 character format.", "label": "Start Date/Time of Medical History Event", "name": "MHSTDTC", "ordinal": "12", "role": "Timing", "simpleDatatype": "Char"}, {"_links": {"modelClassVariable": {"href": "/mdr/sdtm/1-8/classes/GeneralObservations/variables/--ENDTC", "title": "End Date/Time of Observation", "type": "Class Variable"}, "parentDataset": {"href": "/mdr/sendig/ar-1-0/datasets/MH", "title": "Medical History", "type": "SDTM Dataset"}, "parentProduct": {"href": "/mdr/sendig/ar-1-0", "title": "Standard for Exchange of Nonclinical Data Implementation Guide: Animal Rule Version 1.0 (Final)", "type": "Implementation Guide"}, "rootItem": {"href": "/mdr/root/sendig/datasets/MH/variables/MHENDTC", "title": "Version-agnostic anchor resource for SENDIG variable MH.MHENDTC", "type": "Root Data Element"}, "self": {"href": "/mdr/sendig/ar-1-0/datasets/MH/variables/MHENDTC", "title": "End Date/Time of Medical History Event", "type": "SDTM Dataset Variable"}}, "core": "Perm", "describedValueDomain": "ISO 8601", "description": "End date/time of the medical history event.", "label": "End Date/Time of Medical History Event", "name": "MHENDTC", "ordinal": "13", "role": "Timing", "simpleDatatype": "Char"}, {"_links": {"modelClassVariable": {"href": "/mdr/sdtm/1-8/classes/GeneralObservations/variables/--DY", "title": "Study Day of Visit/Collection/Exam", "type": "Class Variable"}, "parentDataset": {"href": "/mdr/sendig/ar-1-0/datasets/MH", "title": "Medical History", "type": "SDTM Dataset"}, "parentProduct": {"href": "/mdr/sendig/ar-1-0", "title": "Standard for Exchange of Nonclinical Data Implementation Guide: Animal Rule Version 1.0 (Final)", "type": "Implementation Guide"}, "rootItem": {"href": "/mdr/root/sendig/datasets/MH/variables/MHDY", "title": "Version-agnostic anchor resource for SENDIG variable MH.MHDY", "type": "Root Data Element"}, "self": {"href": "/mdr/sendig/ar-1-0/datasets/MH/variables/MHDY", "title": "Study Day of History Collection", "type": "SDTM Dataset Variable"}}, "core": "Perm", "description": "Study day of medical history collection, measured as integer days. \n Algorithm for calculations must be relative to the sponsor-defined RFSTDTC variable in Demographics. This formula should be consistent across the submission.", "label": "Study Day of History Collection", "name": "MHDY", "ordinal": "14", "role": "Timing", "simpleDatatype": "Num"}], "label": "Medical History", "name": "MH", "ordinal": "5"}], "description": "This SDTM class captures planned protocol milestones such as randomization and study completion, and occurrences, conditions, or incidents independent of planned study evaluations occurring during the trial (e.g., adverse events) or prior to the trial (e.g., medical history). (Source: CDISC Controlled Terminology, GNRLOBSC, C103372, 2018-06-29)", "label": "Events Observation Class", "name": "Events", "ordinal": "4"}, {"_links": {"modelClass": {"href": "/mdr/sdtm/1-8/classes/Findings", "title": "Findings Observation Class", "type": "Class"}, "parentClass": {"href": "/mdr/sendig/ar-1-0/classes/GeneralObservations", "title": "General Observation Class", "type": "Class"}, "parentProduct": {"href": "/mdr/sendig/ar-1-0", "title": "Standard for Exchange of Nonclinical Data Implementation Guide: Animal Rule Version 1.0 (Final)", "type": "Implementation Guide"}, "self": {"href": "/mdr/sendig/ar-1-0/classes/Findings", "title": "Findings Observation Class", "type": "Class"}, "subclasses": [{"href": "/mdr/sendig/ar-1-0/classes/FindingsAbout", "title": "Findings About Events or Interventions", "type": "Class"}]}, "datasets": [{"_links": {"parentClass": {"href": "/mdr/sendig/ar-1-0/classes/Findings", "title": "Findings Observation Class", "type": "Class"}, "parentProduct": {"href": "/mdr/sendig/ar-1-0", "title": "Standard for Exchange of Nonclinical Data Implementation Guide: Animal Rule Version 1.0 (Final)", "type": "Implementation Guide"}, "self": {"href": "/mdr/sendig/ar-1-0/datasets/MB", "title": "Microbiology Specimen", "type": "SDTM Dataset"}}, "datasetStructure": "One record per microbiology specimen finding per time point per visit per subject", "datasetVariables": [{"_links": {"modelClassVariable": {"href": "/mdr/sdtm/1-8/classes/GeneralObservations/variables/STUDYID", "title": "Study Identifier", "type": "Class Variable"}, "parentDataset": {"href": "/mdr/sendig/ar-1-0/datasets/MB", "title": "Microbiology Specimen", "type": "SDTM Dataset"}, "parentProduct": {"href": "/mdr/sendig/ar-1-0", "title": "Standard for Exchange of Nonclinical Data Implementation Guide: Animal Rule Version 1.0 (Final)", "type": "Implementation Guide"}, "rootItem": {"href": "/mdr/root/sendig/datasets/MB/variables/STUDYID", "title": "Version-agnostic anchor resource for SENDIG variable MB.STUDYID", "type": "Root Data Element"}, "self": {"href": "/mdr/sendig/ar-1-0/datasets/MB/variables/STUDYID", "title": "Study Identifier", "type": "SDTM Dataset Variable"}}, "core": "Req", "description": "Unique identifier for a study.", "label": "Study Identifier", "name": "STUDYID", "ordinal": "1", "role": "Identifier", "simpleDatatype": "Char"}, {"_links": {"modelClassVariable": {"href": "/mdr/sdtm/1-8/classes/GeneralObservations/variables/DOMAIN", "title": "Domain Abbreviation", "type": "Class Variable"}, "parentDataset": {"href": "/mdr/sendig/ar-1-0/datasets/MB", "title": "Microbiology Specimen", "type": "SDTM Dataset"}, "parentProduct": {"href": "/mdr/sendig/ar-1-0", "title": "Standard for Exchange of Nonclinical Data Implementation Guide: Animal Rule Version 1.0 (Final)", "type": "Implementation Guide"}, "rootItem": {"href": "/mdr/root/sendig/datasets/MB/variables/DOMAIN", "title": "Version-agnostic anchor resource for SENDIG variable MB.DOMAIN", "type": "Root Data Element"}, "self": {"href": "/mdr/sendig/ar-1-0/datasets/MB/variables/DOMAIN", "title": "Domain Abbreviation", "type": "SDTM Dataset Variable"}}, "core": "Req", "description": "Two-character abbreviation for the domain.", "label": "Domain Abbreviation", "name": "DOMAIN", "ordinal": "2", "role": "Identifier", "simpleDatatype": "Char", "valueList": ["MB"]}, {"_links": {"modelClassVariable": {"href": "/mdr/sdtm/1-8/classes/GeneralObservations/variables/USUBJID", "title": "Unique Subject Identifier", "type": "Class Variable"}, "parentDataset": {"href": "/mdr/sendig/ar-1-0/datasets/MB", "title": "Microbiology Specimen", "type": "SDTM Dataset"}, "parentProduct": {"href": "/mdr/sendig/ar-1-0", "title": "Standard for Exchange of Nonclinical Data Implementation Guide: Animal Rule Version 1.0 (Final)", "type": "Implementation Guide"}, "rootItem": {"href": "/mdr/root/sendig/datasets/MB/variables/USUBJID", "title": "Version-agnostic anchor resource for SENDIG variable MB.USUBJID", "type": "Root Data Element"}, "self": {"href": "/mdr/sendig/ar-1-0/datasets/MB/variables/USUBJID", "title": "Unique Subject Identifier", "type": "SDTM Dataset Variable"}}, "core": "Req", "description": "Identifier used to uniquely identify a subject across all studies for all applications or submissions involving the product.", "label": "Unique Subject Identifier", "name": "USUBJID", "ordinal": "3", "role": "Identifier", "simpleDatatype": "Char"}, {"_links": {"modelClassVariable": {"href": "/mdr/sdtm/1-8/classes/GeneralObservations/variables/FOCID", "title": "Focus of Study-Specific Interest", "type": "Class Variable"}, "parentDataset": {"href": "/mdr/sendig/ar-1-0/datasets/MB", "title": "Microbiology Specimen", "type": "SDTM Dataset"}, "parentProduct": {"href": "/mdr/sendig/ar-1-0", "title": "Standard for Exchange of Nonclinical Data Implementation Guide: Animal Rule Version 1.0 (Final)", "type": "Implementation Guide"}, "rootItem": {"href": "/mdr/root/sendig/datasets/MB/variables/FOCID", "title": "Version-agnostic anchor resource for SENDIG variable MB.FOCID", "type": "Root Data Element"}, "self": {"href": "/mdr/sendig/ar-1-0/datasets/MB/variables/FOCID", "title": "Focus of Study-Specific Interest", "type": "SDTM Dataset Variable"}}, "core": "Perm", "description": "Identification of a focus of study-specific interest on or within a subject or specimen as called out in the protocol for which a measurement, test, or examination was performed. The value in this variable should have inherent semantic meaning.", "label": "Focus of Study-Specific Interest", "name": "FOCID", "ordinal": "4", "role": "Identifier", "simpleDatatype": "Char"}, {"_links": {"modelClassVariable": {"href": "/mdr/sdtm/1-8/classes/GeneralObservations/variables/--SEQ", "title": "Sequence Number", "type": "Class Variable"}, "parentDataset": {"href": "/mdr/sendig/ar-1-0/datasets/MB", "title": "Microbiology Specimen", "type": "SDTM Dataset"}, "parentProduct": {"href": "/mdr/sendig/ar-1-0", "title": "Standard for Exchange of Nonclinical Data Implementation Guide: Animal Rule Version 1.0 (Final)", "type": "Implementation Guide"}, "rootItem": {"href": "/mdr/root/sendig/datasets/MB/variables/MBSEQ", "title": "Version-agnostic anchor resource for SENDIG variable MB.MBSEQ", "type": "Root Data Element"}, "self": {"href": "/mdr/sendig/ar-1-0/datasets/MB/variables/MBSEQ", "title": "Sequence Number", "type": "SDTM Dataset Variable"}}, "core": "Req", "description": "Sequence number to ensure uniqueness of records within a dataset for a subject. May be any valid number.", "label": "Sequence Number", "name": "MBSEQ", "ordinal": "5", "role": "Identifier", "simpleDatatype": "Num"}, {"_links": {"modelClassVariable": {"href": "/mdr/sdtm/1-8/classes/GeneralObservations/variables/--GRPID", "title": "Group ID", "type": "Class Variable"}, "parentDataset": {"href": "/mdr/sendig/ar-1-0/datasets/MB", "title": "Microbiology Specimen", "type": "SDTM Dataset"}, "parentProduct": {"href": "/mdr/sendig/ar-1-0", "title": "Standard for Exchange of Nonclinical Data Implementation Guide: Animal Rule Version 1.0 (Final)", "type": "Implementation Guide"}, "rootItem": {"href": "/mdr/root/sendig/datasets/MB/variables/MBGRPID", "title": "Version-agnostic anchor resource for SENDIG variable MB.MBGRPID", "type": "Root Data Element"}, "self": {"href": "/mdr/sendig/ar-1-0/datasets/MB/variables/MBGRPID", "title": "Group ID", "type": "SDTM Dataset Variable"}}, "core": "Perm", "description": "Optional group identifier, used to link together a block of related records within a subject in a domain.", "label": "Group ID", "name": "MBGRPID", "ordinal": "6", "role": "Identifier", "simpleDatatype": "Char"}, {"_links": {"modelClassVariable": {"href": "/mdr/sdtm/1-8/classes/GeneralObservations/variables/--REFID", "title": "Reference ID", "type": "Class Variable"}, "parentDataset": {"href": "/mdr/sendig/ar-1-0/datasets/MB", "title": "Microbiology Specimen", "type": "SDTM Dataset"}, "parentProduct": {"href": "/mdr/sendig/ar-1-0", "title": "Standard for Exchange of Nonclinical Data Implementation Guide: Animal Rule Version 1.0 (Final)", "type": "Implementation Guide"}, "rootItem": {"href": "/mdr/root/sendig/datasets/MB/variables/MBREFID", "title": "Version-agnostic anchor resource for SENDIG variable MB.MBREFID", "type": "Root Data Element"}, "self": {"href": "/mdr/sendig/ar-1-0/datasets/MB/variables/MBREFID", "title": "Reference ID", "type": "SDTM Dataset Variable"}}, "core": "Perm", "description": "Internal or external specimen identifier (e.g., sample ID for a subject sample from which a microbial culture was generated).", "label": "Reference ID", "name": "MBREFID", "ordinal": "7", "role": "Identifier", "simpleDatatype": "Char"}, {"_links": {"modelClassVariable": {"href": "/mdr/sdtm/1-8/classes/GeneralObservations/variables/--SPID", "title": "Sponsor-Defined Identifier", "type": "Class Variable"}, "parentDataset": {"href": "/mdr/sendig/ar-1-0/datasets/MB", "title": "Microbiology Specimen", "type": "SDTM Dataset"}, "parentProduct": {"href": "/mdr/sendig/ar-1-0", "title": "Standard for Exchange of Nonclinical Data Implementation Guide: Animal Rule Version 1.0 (Final)", "type": "Implementation Guide"}, "rootItem": {"href": "/mdr/root/sendig/datasets/MB/variables/MBSPID", "title": "Version-agnostic anchor resource for SENDIG variable MB.MBSPID", "type": "Root Data Element"}, "self": {"href": "/mdr/sendig/ar-1-0/datasets/MB/variables/MBSPID", "title": "Sponsor-Defined Identifier", "type": "SDTM Dataset Variable"}}, "core": "Perm", "description": "Sponsor-defined reference number. Perhaps preprinted on the CRF as an explicit line identifier or defined in the sponsor's operational database.", "label": "Sponsor-Defined Identifier", "name": "MBSPID", "ordinal": "8", "role": "Identifier", "simpleDatatype": "Char"}, {"_links": {"modelClassVariable": {"href": "/mdr/sdtm/1-8/classes/GeneralObservations/variables/--LNKID", "title": "Link ID", "type": "Class Variable"}, "parentDataset": {"href": "/mdr/sendig/ar-1-0/datasets/MB", "title": "Microbiology Specimen", "type": "SDTM Dataset"}, "parentProduct": {"href": "/mdr/sendig/ar-1-0", "title": "Standard for Exchange of Nonclinical Data Implementation Guide: Animal Rule Version 1.0 (Final)", "type": "Implementation Guide"}, "rootItem": {"href": "/mdr/root/sendig/datasets/MB/variables/MBLNKID", "title": "Version-agnostic anchor resource for SENDIG variable MB.MBLNKID", "type": "Root Data Element"}, "self": {"href": "/mdr/sendig/ar-1-0/datasets/MB/variables/MBLNKID", "title": "Link ID", "type": "SDTM Dataset Variable"}}, "core": "Perm", "description": "Identifier used to link related records across domains. This may be a one-to-one or a one-to-many relationship.", "label": "Link ID", "name": "MBLNKID", "ordinal": "9", "role": "Identifier", "simpleDatatype": "Char"}, {"_links": {"modelClassVariable": {"href": "/mdr/sdtm/1-8/classes/GeneralObservations/variables/--LNKGRP", "title": "Link Group ID", "type": "Class Variable"}, "parentDataset": {"href": "/mdr/sendig/ar-1-0/datasets/MB", "title": "Microbiology Specimen", "type": "SDTM Dataset"}, "parentProduct": {"href": "/mdr/sendig/ar-1-0", "title": "Standard for Exchange of Nonclinical Data Implementation Guide: Animal Rule Version 1.0 (Final)", "type": "Implementation Guide"}, "rootItem": {"href": "/mdr/root/sendig/datasets/MB/variables/MBLNKGRP", "title": "Version-agnostic anchor resource for SENDIG variable MB.MBLNKGRP", "type": "Root Data Element"}, "self": {"href": "/mdr/sendig/ar-1-0/datasets/MB/variables/MBLNKGRP", "title": "Link Group ID", "type": "SDTM Dataset Variable"}}, "core": "Perm", "description": "Identifier used to link related records across domains. This will usually be a many-to-one relationship.", "label": "Link Group ID", "name": "MBLNKGRP", "ordinal": "10", "role": "Identifier", "simpleDatatype": "Char"}, {"_links": {"modelClassVariable": {"href": "/mdr/sdtm/1-8/classes/Findings/variables/--TESTCD", "title": "Short Name of Measurement, Test, or Exam", "type": "Class Variable"}, "parentDataset": {"href": "/mdr/sendig/ar-1-0/datasets/MB", "title": "Microbiology Specimen", "type": "SDTM Dataset"}, "parentProduct": {"href": "/mdr/sendig/ar-1-0", "title": "Standard for Exchange of Nonclinical Data Implementation Guide: Animal Rule Version 1.0 (Final)", "type": "Implementation Guide"}, "rootItem": {"href": "/mdr/root/sendig/datasets/MB/variables/MBTESTCD", "title": "Version-agnostic anchor resource for SENDIG variable MB.MBTESTCD", "type": "Root Data Element"}, "self": {"href": "/mdr/sendig/ar-1-0/datasets/MB/variables/MBTESTCD", "title": "Microbiology Test or Finding Short Name", "type": "SDTM Dataset Variable"}}, "core": "Req", "description": "Short name of the measurement, test, or finding described in MBTEST. It can be used as a column name when converting a dataset from a vertical to a horizontal format. The value in MBTESTCD cannot be longer than 8 characters, nor can it start with a number (e.g., \"1TEST\" is not valid). MBTESTCD cannot contain characters other than letters, numbers, or underscores. Examples: \"MCORGIDN\" for Microbial Organism Identification, \"GMNCOC\" for Gram Negative Cocci.", "label": "Microbiology Test or Finding Short Name", "name": "MBTESTCD", "ordinal": "11", "role": "Topic", "simpleDatatype": "Char"}, {"_links": {"modelClassVariable": {"href": "/mdr/sdtm/1-8/classes/Findings/variables/--TEST", "title": "Name of Measurement, Test, or Exam", "type": "Class Variable"}, "parentDataset": {"href": "/mdr/sendig/ar-1-0/datasets/MB", "title": "Microbiology Specimen", "type": "SDTM Dataset"}, "parentProduct": {"href": "/mdr/sendig/ar-1-0", "title": "Standard for Exchange of Nonclinical Data Implementation Guide: Animal Rule Version 1.0 (Final)", "type": "Implementation Guide"}, "rootItem": {"href": "/mdr/root/sendig/datasets/MB/variables/MBTEST", "title": "Version-agnostic anchor resource for SENDIG variable MB.MBTEST", "type": "Root Data Element"}, "self": {"href": "/mdr/sendig/ar-1-0/datasets/MB/variables/MBTEST", "title": "Microbiology Test or Finding Name", "type": "SDTM Dataset Variable"}}, "core": "Req", "description": "Verbatim name of the test or examination used to obtain the measurement or finding. The value in MBTEST cannot be longer than 40 characters. Examples: \"Microbial Organism Identification\", \"Gram Negative Cocci\", \"HIV-1 RNA\".", "label": "Microbiology Test or Finding Name", "name": "MBTEST", "ordinal": "12", "role": "Synonym Qualifier", "simpleDatatype": "Char"}, {"_links": {"modelClassVariable": {"href": "/mdr/sdtm/1-8/classes/Findings/variables/--TSTDTL", "title": "Measurement, Test, or Examination Detail", "type": "Class Variable"}, "parentDataset": {"href": "/mdr/sendig/ar-1-0/datasets/MB", "title": "Microbiology Specimen", "type": "SDTM Dataset"}, "parentProduct": {"href": "/mdr/sendig/ar-1-0", "title": "Standard for Exchange of Nonclinical Data Implementation Guide: Animal Rule Version 1.0 (Final)", "type": "Implementation Guide"}, "rootItem": {"href": "/mdr/root/sendig/datasets/MB/variables/MBTSTDTL", "title": "Version-agnostic anchor resource for SENDIG variable MB.MBTSTDTL", "type": "Root Data Element"}, "self": {"href": "/mdr/sendig/ar-1-0/datasets/MB/variables/MBTSTDTL", "title": "Measurement, Test or Examination Detail", "type": "SDTM Dataset Variable"}}, "core": "Perm", "description": "Further description of MBTESTCD and MBTEST. Examples: \"VIRAL LOAD\" (when MBTESTCD represents viral genetic material, such as \"HCRNA\"), \"QUANTIFICATION\" (when MBTESTCD represents any organism being quantified).", "label": "Measurement, Test or Examination Detail", "name": "MBTSTDTL", "ordinal": "13", "role": "Variable Qualifier", "simpleDatatype": "Char"}, {"_links": {"modelClassVariable": {"href": "/mdr/sdtm/1-8/classes/Findings/variables/--CAT", "title": "Category", "type": "Class Variable"}, "parentDataset": {"href": "/mdr/sendig/ar-1-0/datasets/MB", "title": "Microbiology Specimen", "type": "SDTM Dataset"}, "parentProduct": {"href": "/mdr/sendig/ar-1-0", "title": "Standard for Exchange of Nonclinical Data Implementation Guide: Animal Rule Version 1.0 (Final)", "type": "Implementation Guide"}, "rootItem": {"href": "/mdr/root/sendig/datasets/MB/variables/MBCAT", "title": "Version-agnostic anchor resource for SENDIG variable MB.MBCAT", "type": "Root Data Element"}, "self": {"href": "/mdr/sendig/ar-1-0/datasets/MB/variables/MBCAT", "title": "Category", "type": "SDTM Dataset Variable"}}, "core": "Perm", "description": "Used to define a category of related records.", "label": "Category", "name": "MBCAT", "ordinal": "14", "role": "Grouping Qualifier", "simpleDatatype": "Char"}, {"_links": {"modelClassVariable": {"href": "/mdr/sdtm/1-8/classes/Findings/variables/--SCAT", "title": "Subcategory", "type": "Class Variable"}, "parentDataset": {"href": "/mdr/sendig/ar-1-0/datasets/MB", "title": "Microbiology Specimen", "type": "SDTM Dataset"}, "parentProduct": {"href": "/mdr/sendig/ar-1-0", "title": "Standard for Exchange of Nonclinical Data Implementation Guide: Animal Rule Version 1.0 (Final)", "type": "Implementation Guide"}, "rootItem": {"href": "/mdr/root/sendig/datasets/MB/variables/MBSCAT", "title": "Version-agnostic anchor resource for SENDIG variable MB.MBSCAT", "type": "Root Data Element"}, "self": {"href": "/mdr/sendig/ar-1-0/datasets/MB/variables/MBSCAT", "title": "Subcategory", "type": "SDTM Dataset Variable"}}, "core": "Perm", "description": "Used to define a further categorization of MBCAT values.", "label": "Subcategory", "name": "MBSCAT", "ordinal": "15", "role": "Grouping Qualifier", "simpleDatatype": "Char"}, {"_links": {"modelClassVariable": {"href": "/mdr/sdtm/1-8/classes/Findings/variables/--ORRES", "title": "Result or Finding in Original Units", "type": "Class Variable"}, "parentDataset": {"href": "/mdr/sendig/ar-1-0/datasets/MB", "title": "Microbiology Specimen", "type": "SDTM Dataset"}, "parentProduct": {"href": "/mdr/sendig/ar-1-0", "title": "Standard for Exchange of Nonclinical Data Implementation Guide: Animal Rule Version 1.0 (Final)", "type": "Implementation Guide"}, "rootItem": {"href": "/mdr/root/sendig/datasets/MB/variables/MBORRES", "title": "Version-agnostic anchor resource for SENDIG variable MB.MBORRES", "type": "Root Data Element"}, "self": {"href": "/mdr/sendig/ar-1-0/datasets/MB/variables/MBORRES", "title": "Result or Finding in Original Units", "type": "SDTM Dataset Variable"}}, "core": "Exp", "description": "Result of the Microbiology measurement or finding as originally received or collected. Examples for \"GRAM STAIN\" findings: \"+3 MODERATE\", \"+2 FEW\", \"<10\". Examples for \"CULTURE PLATE\" findings: \"KLEBSIELLA PNEUMONIAE\", \"STREPTOCOCCUS PNEUMONIAE\".", "label": "Result or Finding in Original Units", "name": "MBORRES", "ordinal": "16", "role": "Result Qualifier", "simpleDatatype": "Char"}, {"_links": {"codelist": [{"href": "/mdr/root/ct/sendct/codelists/C71620", "title": "Version-agnostic anchor resource for codelist C71620", "type": "Root Value Domain"}], "modelClassVariable": {"href": "/mdr/sdtm/1-8/classes/Findings/variables/--ORRESU", "title": "Original Units", "type": "Class Variable"}, "parentDataset": {"href": "/mdr/sendig/ar-1-0/datasets/MB", "title": "Microbiology Specimen", "type": "SDTM Dataset"}, "parentProduct": {"href": "/mdr/sendig/ar-1-0", "title": "Standard for Exchange of Nonclinical Data Implementation Guide: Animal Rule Version 1.0 (Final)", "type": "Implementation Guide"}, "rootItem": {"href": "/mdr/root/sendig/datasets/MB/variables/MBORRESU", "title": "Version-agnostic anchor resource for SENDIG variable MB.MBORRESU", "type": "Root Data Element"}, "self": {"href": "/mdr/sendig/ar-1-0/datasets/MB/variables/MBORRESU", "title": "Original Units", "type": "SDTM Dataset Variable"}}, "core": "Perm", "description": "Original unit for MBORRES. Example: \"mg/mL\".", "label": "Original Units", "name": "MBORRESU", "ordinal": "17", "role": "Variable Qualifier", "simpleDatatype": "Char"}, {"_links": {"modelClassVariable": {"href": "/mdr/sdtm/1-8/classes/Findings/variables/--STRESC", "title": "Result or Finding in Standard Format", "type": "Class Variable"}, "parentDataset": {"href": "/mdr/sendig/ar-1-0/datasets/MB", "title": "Microbiology Specimen", "type": "SDTM Dataset"}, "parentProduct": {"href": "/mdr/sendig/ar-1-0", "title": "Standard for Exchange of Nonclinical Data Implementation Guide: Animal Rule Version 1.0 (Final)", "type": "Implementation Guide"}, "rootItem": {"href": "/mdr/root/sendig/datasets/MB/variables/MBSTRESC", "title": "Version-agnostic anchor resource for SENDIG variable MB.MBSTRESC", "type": "Root Data Element"}, "self": {"href": "/mdr/sendig/ar-1-0/datasets/MB/variables/MBSTRESC", "title": "Result or Finding in Standard Format", "type": "SDTM Dataset Variable"}}, "core": "Exp", "description": "Contains the result value for all findings; copied or derived from MBORRES in a standard format or standard units. MBSTRESC should store all results or findings in character format; if results are numeric, they should also be stored in numeric format in MBSTRESN. For example, if a test has results \"+3 MODERATE\", \"MOD\", and \"MODERATE\" in MBORRES and these results effectively have the same meaning, they could be represented in standard format in MBSTRESC as \"MODERATE\".", "label": "Result or Finding in Standard Format", "name": "MBSTRESC", "ordinal": "18", "role": "Result Qualifier", "simpleDatatype": "Char"}, {"_links": {"modelClassVariable": {"href": "/mdr/sdtm/1-8/classes/Findings/variables/--STRESN", "title": "Numeric Result/Finding in Standard Units", "type": "Class Variable"}, "parentDataset": {"href": "/mdr/sendig/ar-1-0/datasets/MB", "title": "Microbiology Specimen", "type": "SDTM Dataset"}, "parentProduct": {"href": "/mdr/sendig/ar-1-0", "title": "Standard for Exchange of Nonclinical Data Implementation Guide: Animal Rule Version 1.0 (Final)", "type": "Implementation Guide"}, "rootItem": {"href": "/mdr/root/sendig/datasets/MB/variables/MBSTRESN", "title": "Version-agnostic anchor resource for SENDIG variable MB.MBSTRESN", "type": "Root Data Element"}, "self": {"href": "/mdr/sendig/ar-1-0/datasets/MB/variables/MBSTRESN", "title": "Numeric Result/Finding in Standard Units", "type": "SDTM Dataset Variable"}}, "core": "Perm", "description": "Used for continuous or numeric results or findings in standard format; copied in numeric format from MBSTRESC. MBSTRESN should store all numeric test results or findings.", "label": "Numeric Result/Finding in Standard Units", "name": "MBSTRESN", "ordinal": "19", "role": "Result Qualifier", "simpleDatatype": "Num"}, {"_links": {"codelist": [{"href": "/mdr/root/ct/sendct/codelists/C71620", "title": "Version-agnostic anchor resource for codelist C71620", "type": "Root Value Domain"}], "modelClassVariable": {"href": "/mdr/sdtm/1-8/classes/Findings/variables/--STRESU", "title": "Standard Units", "type": "Class Variable"}, "parentDataset": {"href": "/mdr/sendig/ar-1-0/datasets/MB", "title": "Microbiology Specimen", "type": "SDTM Dataset"}, "parentProduct": {"href": "/mdr/sendig/ar-1-0", "title": "Standard for Exchange of Nonclinical Data Implementation Guide: Animal Rule Version 1.0 (Final)", "type": "Implementation Guide"}, "rootItem": {"href": "/mdr/root/sendig/datasets/MB/variables/MBSTRESU", "title": "Version-agnostic anchor resource for SENDIG variable MB.MBSTRESU", "type": "Root Data Element"}, "self": {"href": "/mdr/sendig/ar-1-0/datasets/MB/variables/MBSTRESU", "title": "Standard Units", "type": "SDTM Dataset Variable"}}, "core": "Perm", "description": "Standardized units used for MBSTRESC and MBSTRESN.", "label": "Standard Units", "name": "MBSTRESU", "ordinal": "20", "role": "Variable Qualifier", "simpleDatatype": "Char"}, {"_links": {"modelClassVariable": {"href": "/mdr/sdtm/1-8/classes/Findings/variables/--RESCAT", "title": "Result Category", "type": "Class Variable"}, "parentDataset": {"href": "/mdr/sendig/ar-1-0/datasets/MB", "title": "Microbiology Specimen", "type": "SDTM Dataset"}, "parentProduct": {"href": "/mdr/sendig/ar-1-0", "title": "Standard for Exchange of Nonclinical Data Implementation Guide: Animal Rule Version 1.0 (Final)", "type": "Implementation Guide"}, "rootItem": {"href": "/mdr/root/sendig/datasets/MB/variables/MBRESCAT", "title": "Version-agnostic anchor resource for SENDIG variable MB.MBRESCAT", "type": "Root Data Element"}, "self": {"href": "/mdr/sendig/ar-1-0/datasets/MB/variables/MBRESCAT", "title": "Result Category", "type": "SDTM Dataset Variable"}}, "core": "Perm", "description": "Used to categorize the result of a finding in a standard format.", "label": "Result Category", "name": "MBRESCAT", "ordinal": "21", "role": "Variable Qualifier", "simpleDatatype": "Char"}, {"_links": {"codelist": [{"href": "/mdr/root/ct/sendct/codelists/C66789", "title": "Version-agnostic anchor resource for codelist C66789", "type": "Root Value Domain"}], "modelClassVariable": {"href": "/mdr/sdtm/1-8/classes/Findings/variables/--STAT", "title": "Completion Status", "type": "Class Variable"}, "parentDataset": {"href": "/mdr/sendig/ar-1-0/datasets/MB", "title": "Microbiology Specimen", "type": "SDTM Dataset"}, "parentProduct": {"href": "/mdr/sendig/ar-1-0", "title": "Standard for Exchange of Nonclinical Data Implementation Guide: Animal Rule Version 1.0 (Final)", "type": "Implementation Guide"}, "rootItem": {"href": "/mdr/root/sendig/datasets/MB/variables/MBSTAT", "title": "Version-agnostic anchor resource for SENDIG variable MB.MBSTAT", "type": "Root Data Element"}, "self": {"href": "/mdr/sendig/ar-1-0/datasets/MB/variables/MBSTAT", "title": "Completion Status", "type": "SDTM Dataset Variable"}}, "core": "Perm", "description": "Used to indicate that a question was not asked or a test was not done, or that a test was attempted but did not generate a result. Should be null or have a value of \"NOT DONE\".", "label": "Completion Status", "name": "MBSTAT", "ordinal": "22", "role": "Record Qualifier", "simpleDatatype": "Char"}, {"_links": {"modelClassVariable": {"href": "/mdr/sdtm/1-8/classes/Findings/variables/--REASND", "title": "Reason Not Done", "type": "Class Variable"}, "parentDataset": {"href": "/mdr/sendig/ar-1-0/datasets/MB", "title": "Microbiology Specimen", "type": "SDTM Dataset"}, "parentProduct": {"href": "/mdr/sendig/ar-1-0", "title": "Standard for Exchange of Nonclinical Data Implementation Guide: Animal Rule Version 1.0 (Final)", "type": "Implementation Guide"}, "rootItem": {"href": "/mdr/root/sendig/datasets/MB/variables/MBREASND", "title": "Version-agnostic anchor resource for SENDIG variable MB.MBREASND", "type": "Root Data Element"}, "self": {"href": "/mdr/sendig/ar-1-0/datasets/MB/variables/MBREASND", "title": "Reason Not Done", "type": "SDTM Dataset Variable"}}, "core": "Perm", "description": "Reason not done. Used in conjunction with MBSTAT when value is \"NOT DONE\". Examples: \"BROKEN EQUIPMENT\", \"TECHNICIAN OVERSIGHT\".", "label": "Reason Not Done", "name": "MBREASND", "ordinal": "23", "role": "Record Qualifier", "simpleDatatype": "Char"}, {"_links": {"modelClassVariable": {"href": "/mdr/sdtm/1-8/classes/Findings/variables/--NAM", "title": "Laboratory/Vendor Name", "type": "Class Variable"}, "parentDataset": {"href": "/mdr/sendig/ar-1-0/datasets/MB", "title": "Microbiology Specimen", "type": "SDTM Dataset"}, "parentProduct": {"href": "/mdr/sendig/ar-1-0", "title": "Standard for Exchange of Nonclinical Data Implementation Guide: Animal Rule Version 1.0 (Final)", "type": "Implementation Guide"}, "rootItem": {"href": "/mdr/root/sendig/datasets/MB/variables/MBNAM", "title": "Version-agnostic anchor resource for SENDIG variable MB.MBNAM", "type": "Root Data Element"}, "self": {"href": "/mdr/sendig/ar-1-0/datasets/MB/variables/MBNAM", "title": "Laboratory/Vendor Name", "type": "SDTM Dataset Variable"}}, "core": "Perm", "description": "Name or identifier of the vendor (e.g., laboratory) that provided the test results.", "label": "Laboratory/Vendor Name", "name": "MBNAM", "ordinal": "24", "role": "Record Qualifier", "simpleDatatype": "Char"}, {"_links": {"codelist": [{"href": "/mdr/root/ct/sendct/codelists/C77529", "title": "Version-agnostic anchor resource for codelist C77529", "type": "Root Value Domain"}], "modelClassVariable": {"href": "/mdr/sdtm/1-8/classes/Findings/variables/--SPEC", "title": "Specimen Material Type", "type": "Class Variable"}, "parentDataset": {"href": "/mdr/sendig/ar-1-0/datasets/MB", "title": "Microbiology Specimen", "type": "SDTM Dataset"}, "parentProduct": {"href": "/mdr/sendig/ar-1-0", "title": "Standard for Exchange of Nonclinical Data Implementation Guide: Animal Rule Version 1.0 (Final)", "type": "Implementation Guide"}, "rootItem": {"href": "/mdr/root/sendig/datasets/MB/variables/MBSPEC", "title": "Version-agnostic anchor resource for SENDIG variable MB.MBSPEC", "type": "Root Data Element"}, "self": {"href": "/mdr/sendig/ar-1-0/datasets/MB/variables/MBSPEC", "title": "Specimen Material Type", "type": "SDTM Dataset Variable"}}, "core": "Perm", "description": "Defines the type of specimen used for a measurement. Examples: \"BLOOD\", \"PUS\".", "label": "Specimen Material Type", "name": "MBSPEC", "ordinal": "25", "role": "Record Qualifier", "simpleDatatype": "Char"}, {"_links": {"modelClassVariable": {"href": "/mdr/sdtm/1-8/classes/Findings/variables/--SPCCND", "title": "Specimen Condition", "type": "Class Variable"}, "parentDataset": {"href": "/mdr/sendig/ar-1-0/datasets/MB", "title": "Microbiology Specimen", "type": "SDTM Dataset"}, "parentProduct": {"href": "/mdr/sendig/ar-1-0", "title": "Standard for Exchange of Nonclinical Data Implementation Guide: Animal Rule Version 1.0 (Final)", "type": "Implementation Guide"}, "rootItem": {"href": "/mdr/root/sendig/datasets/MB/variables/MBSPCCND", "title": "Version-agnostic anchor resource for SENDIG variable MB.MBSPCCND", "type": "Root Data Element"}, "self": {"href": "/mdr/sendig/ar-1-0/datasets/MB/variables/MBSPCCND", "title": "Specimen Condition", "type": "SDTM Dataset Variable"}}, "core": "Perm", "description": "Free or standardized text describing the condition of the specimen. Example: \"CONTAMINATED\".", "label": "Specimen Condition", "name": "MBSPCCND", "ordinal": "26", "role": "Record Qualifier", "simpleDatatype": "Char"}, {"_links": {"codelist": [{"href": "/mdr/root/ct/sendct/codelists/C74456", "title": "Version-agnostic anchor resource for codelist C74456", "type": "Root Value Domain"}], "modelClassVariable": {"href": "/mdr/sdtm/1-8/classes/Findings/variables/--LOC", "title": "Location Used for the Measurement", "type": "Class Variable"}, "parentDataset": {"href": "/mdr/sendig/ar-1-0/datasets/MB", "title": "Microbiology Specimen", "type": "SDTM Dataset"}, "parentProduct": {"href": "/mdr/sendig/ar-1-0", "title": "Standard for Exchange of Nonclinical Data Implementation Guide: Animal Rule Version 1.0 (Final)", "type": "Implementation Guide"}, "rootItem": {"href": "/mdr/root/sendig/datasets/MB/variables/MBLOC", "title": "Version-agnostic anchor resource for SENDIG variable MB.MBLOC", "type": "Root Data Element"}, "self": {"href": "/mdr/sendig/ar-1-0/datasets/MB/variables/MBLOC", "title": "Specimen Collection Location", "type": "SDTM Dataset Variable"}}, "core": "Perm", "description": "Anatomical location relevant to the collection of the measurement.", "label": "Specimen Collection Location", "name": "MBLOC", "ordinal": "27", "role": "Record Qualifier", "simpleDatatype": "Char"}, {"_links": {"codelist": [{"href": "/mdr/root/ct/sendct/codelists/C99073", "title": "Version-agnostic anchor resource for codelist C99073", "type": "Root Value Domain"}], "modelClassVariable": {"href": "/mdr/sdtm/1-8/classes/Findings/variables/--LAT", "title": "Laterality", "type": "Class Variable"}, "parentDataset": {"href": "/mdr/sendig/ar-1-0/datasets/MB", "title": "Microbiology Specimen", "type": "SDTM Dataset"}, "parentProduct": {"href": "/mdr/sendig/ar-1-0", "title": "Standard for Exchange of Nonclinical Data Implementation Guide: Animal Rule Version 1.0 (Final)", "type": "Implementation Guide"}, "rootItem": {"href": "/mdr/root/sendig/datasets/MB/variables/MBLAT", "title": "Version-agnostic anchor resource for SENDIG variable MB.MBLAT", "type": "Root Data Element"}, "self": {"href": "/mdr/sendig/ar-1-0/datasets/MB/variables/MBLAT", "title": "Laterality", "type": "SDTM Dataset Variable"}}, "core": "Perm", "description": "Qualifier for specimen collection location further detailing laterality. Examples: \"RIGHT\", \"LEFT\", \"BILATERAL\".", "label": "Laterality", "name": "MBLAT", "ordinal": "28", "role": "Variable Qualifier", "simpleDatatype": "Char"}, {"_links": {"codelist": [{"href": "/mdr/root/ct/sendct/codelists/C99074", "title": "Version-agnostic anchor resource for codelist C99074", "type": "Root Value Domain"}], "modelClassVariable": {"href": "/mdr/sdtm/1-8/classes/Findings/variables/--DIR", "title": "Directionality", "type": "Class Variable"}, "parentDataset": {"href": "/mdr/sendig/ar-1-0/datasets/MB", "title": "Microbiology Specimen", "type": "SDTM Dataset"}, "parentProduct": {"href": "/mdr/sendig/ar-1-0", "title": "Standard for Exchange of Nonclinical Data Implementation Guide: Animal Rule Version 1.0 (Final)", "type": "Implementation Guide"}, "rootItem": {"href": "/mdr/root/sendig/datasets/MB/variables/MBDIR", "title": "Version-agnostic anchor resource for SENDIG variable MB.MBDIR", "type": "Root Data Element"}, "self": {"href": "/mdr/sendig/ar-1-0/datasets/MB/variables/MBDIR", "title": "Directionality", "type": "SDTM Dataset Variable"}}, "core": "Perm", "description": "Qualifier for specimen collection location further detailing directionality. Examples: \"ANTERIOR\", \"LOWER\", \"PROXIMAL\".", "label": "Directionality", "name": "MBDIR", "ordinal": "29", "role": "Variable Qualifier", "simpleDatatype": "Char"}, {"_links": {"modelClassVariable": {"href": "/mdr/sdtm/1-8/classes/Findings/variables/--METHOD", "title": "Method of Test or Examination", "type": "Class Variable"}, "parentDataset": {"href": "/mdr/sendig/ar-1-0/datasets/MB", "title": "Microbiology Specimen", "type": "SDTM Dataset"}, "parentProduct": {"href": "/mdr/sendig/ar-1-0", "title": "Standard for Exchange of Nonclinical Data Implementation Guide: Animal Rule Version 1.0 (Final)", "type": "Implementation Guide"}, "rootItem": {"href": "/mdr/root/sendig/datasets/MB/variables/MBMETHOD", "title": "Version-agnostic anchor resource for SENDIG variable MB.MBMETHOD", "type": "Root Data Element"}, "self": {"href": "/mdr/sendig/ar-1-0/datasets/MB/variables/MBMETHOD", "title": "Method of Test or Examination", "type": "SDTM Dataset Variable"}}, "core": "Exp", "description": "Method of the test or examination. Example: \"GRAM STAIN\",\"MICROBIAL CULTURE, LIQUID\", \"QUANTITATIVE REVERSE TRANSCRIPTASE POLYMERASE CHAIN REACTION\".", "label": "Method of Test or Examination", "name": "MBMETHOD", "ordinal": "30", "role": "Record Qualifier", "simpleDatatype": "Char"}, {"_links": {"codelist": [{"href": "/mdr/root/ct/sendct/codelists/C66742", "title": "Version-agnostic anchor resource for codelist C66742", "type": "Root Value Domain"}], "modelClassVariable": {"href": "/mdr/sdtm/1-8/classes/Findings/variables/--LOBXFL", "title": "Last Observation Before Exposure Flag", "type": "Class Variable"}, "parentDataset": {"href": "/mdr/sendig/ar-1-0/datasets/MB", "title": "Microbiology Specimen", "type": "SDTM Dataset"}, "parentProduct": {"href": "/mdr/sendig/ar-1-0", "title": "Standard for Exchange of Nonclinical Data Implementation Guide: Animal Rule Version 1.0 (Final)", "type": "Implementation Guide"}, "rootItem": {"href": "/mdr/root/sendig/datasets/MB/variables/MBLOBXFL", "title": "Version-agnostic anchor resource for SENDIG variable MB.MBLOBXFL", "type": "Root Data Element"}, "self": {"href": "/mdr/sendig/ar-1-0/datasets/MB/variables/MBLOBXFL", "title": "Last Observation Before Exposure Flag", "type": "SDTM Dataset Variable"}}, "core": "Perm", "description": "Operationally derived indicator used to identify the last non-missing value prior to RFXSTDTC. The value should be \"Y\" or null.", "label": "Last Observation Before Exposure Flag", "name": "MBLOBXFL", "ordinal": "31", "role": "Record Qualifier", "simpleDatatype": "Char"}, {"_links": {"codelist": [{"href": "/mdr/root/ct/sendct/codelists/C66742", "title": "Version-agnostic anchor resource for codelist C66742", "type": "Root Value Domain"}], "modelClassVariable": {"href": "/mdr/sdtm/1-8/classes/Findings/variables/--BLFL", "title": "Baseline Flag", "type": "Class Variable"}, "parentDataset": {"href": "/mdr/sendig/ar-1-0/datasets/MB", "title": "Microbiology Specimen", "type": "SDTM Dataset"}, "parentProduct": {"href": "/mdr/sendig/ar-1-0", "title": "Standard for Exchange of Nonclinical Data Implementation Guide: Animal Rule Version 1.0 (Final)", "type": "Implementation Guide"}, "rootItem": {"href": "/mdr/root/sendig/datasets/MB/variables/MBBLFL", "title": "Version-agnostic anchor resource for SENDIG variable MB.MBBLFL", "type": "Root Data Element"}, "self": {"href": "/mdr/sendig/ar-1-0/datasets/MB/variables/MBBLFL", "title": "Baseline Flag", "type": "SDTM Dataset Variable"}}, "core": "Perm", "description": "Indicator used to identify a baseline value. Should be \"Y\" or null. Note that MBBLFL is retained for backward compatibility. The authoritative baseline for statistical analysis is in an ADaM dataset.", "label": "Baseline Flag", "name": "MBBLFL", "ordinal": "32", "role": "Record Qualifier", "simpleDatatype": "Char"}, {"_l