{"_links": {"model": {"href": "/mdr/sdtm/1-6", "title": "Study Data Tabulation Model Version 1.6", "type": "Foundational Model"}, "self": {"href": "/mdr/sendig/dart-1-1", "title": "Standard for Exchange of Nonclinical Data Implementation Guide: Developmental and Reproductive Toxicology Version 1.1", "type": "Implementation Guide"}}, "classes": [{"_links": {"modelClass": {"href": "/mdr/sdtm/1-6/classes/GeneralObservations", "title": "General Observation Class", "type": "Class"}, "parentProduct": {"href": "/mdr/sendig/dart-1-1", "title": "Standard for Exchange of Nonclinical Data Implementation Guide: Developmental and Reproductive Toxicology Version 1.1", "type": "Implementation Guide"}, "self": {"href": "/mdr/sendig/dart-1-1/classes/GeneralObservations", "title": "General Observation Class", "type": "Class"}, "subclasses": [{"href": "/mdr/sendig/dart-1-1/classes/Interventions", "title": "Interventions Observation Class", "type": "Class"}, {"href": "/mdr/sendig/dart-1-1/classes/Events", "title": "Events Observation Class", "type": "Class"}, {"href": "/mdr/sendig/dart-1-1/classes/Findings", "title": "Findings Observation Class", "type": "Class"}]}, "description": "The majority of observations collected during a study can be divided among three general classes: Interventions, Events, or Findings.  Datasets based on any of the general observation classes share a set of common Identifier and Timing variables. As a general rule, any valid Identifier or Timing variable is permissible for use in any submission dataset based on a general observation class. (Source: SDTM v1.6, Section 2.2)", "label": "General Observation Class", "name": "General Observations", "ordinal": "1"}, {"_links": {"modelClass": {"href": "/mdr/sdtm/1-6/classes/SpecialPurpose", "title": "Special-Purpose Datasets", "type": "Class"}, "parentProduct": {"href": "/mdr/sendig/dart-1-1", "title": "Standard for Exchange of Nonclinical Data Implementation Guide: Developmental and Reproductive Toxicology Version 1.1", "type": "Implementation Guide"}, "self": {"href": "/mdr/sendig/dart-1-1/classes/SpecialPurpose", "title": "Special-Purpose Datasets", "type": "Class"}}, "datasets": [{"_links": {"modelDataset": {"href": "/mdr/sdtm/1-6/datasets/SJ", "title": "Subject Repro Stages", "type": "SDTM Dataset"}, "parentClass": {"href": "/mdr/sendig/dart-1-1/classes/SpecialPurpose", "title": "Special-Purpose Datasets", "type": "Class"}, "parentProduct": {"href": "/mdr/sendig/dart-1-1", "title": "Standard for Exchange of Nonclinical Data Implementation Guide: Developmental and Reproductive Toxicology Version 1.1", "type": "Implementation Guide"}, "self": {"href": "/mdr/sendig/dart-1-1/datasets/SJ", "title": "Subject Repro Stages", "type": "SDTM Dataset"}}, "datasetStructure": "One record per actual Repro Stage per subject", "datasetVariables": [{"_links": {"modelDatasetVariable": {"href": "/mdr/sdtm/1-6/datasets/SJ/variables/STUDYID", "title": "Study Identifier", "type": "SDTM Dataset Variable"}, "parentDataset": {"href": "/mdr/sendig/dart-1-1/datasets/SJ", "title": "Subject Repro Stages", "type": "SDTM Dataset"}, "parentProduct": {"href": "/mdr/sendig/dart-1-1", "title": "Standard for Exchange of Nonclinical Data Implementation Guide: Developmental and Reproductive Toxicology Version 1.1", "type": "Implementation Guide"}, "rootItem": {"href": "/mdr/root/sendig/datasets/SJ/variables/STUDYID", "title": "Version-agnostic anchor resource for SENDIG variable SJ.STUDYID", "type": "Root Data Element"}, "self": {"href": "/mdr/sendig/dart-1-1/datasets/SJ/variables/STUDYID", "title": "Study Identifier", "type": "SDTM Dataset Variable"}}, "core": "Req", "description": "Unique identifier for a study.", "label": "Study Identifier", "name": "STUDYID", "ordinal": "1", "role": "Identifier", "simpleDatatype": "Char"}, {"_links": {"modelDatasetVariable": {"href": "/mdr/sdtm/1-6/datasets/SJ/variables/DOMAIN", "title": "Domain Abbreviation", "type": "SDTM Dataset Variable"}, "parentDataset": {"href": "/mdr/sendig/dart-1-1/datasets/SJ", "title": "Subject Repro Stages", "type": "SDTM Dataset"}, "parentProduct": {"href": "/mdr/sendig/dart-1-1", "title": "Standard for Exchange of Nonclinical Data Implementation Guide: Developmental and Reproductive Toxicology Version 1.1", "type": "Implementation Guide"}, "rootItem": {"href": "/mdr/root/sendig/datasets/SJ/variables/DOMAIN", "title": "Version-agnostic anchor resource for SENDIG variable SJ.DOMAIN", "type": "Root Data Element"}, "self": {"href": "/mdr/sendig/dart-1-1/datasets/SJ/variables/DOMAIN", "title": "Domain Abbreviation", "type": "SDTM Dataset Variable"}}, "core": "Req", "description": "Two-character abbreviation for the domain, which must be SJ.", "label": "Domain Abbreviation", "name": "DOMAIN", "ordinal": "2", "role": "Identifier", "simpleDatatype": "Char", "valueList": ["SJ"]}, {"_links": {"modelDatasetVariable": {"href": "/mdr/sdtm/1-6/datasets/SJ/variables/USUBJID", "title": "Unique Subject Identifier", "type": "SDTM Dataset Variable"}, "parentDataset": {"href": "/mdr/sendig/dart-1-1/datasets/SJ", "title": "Subject Repro Stages", "type": "SDTM Dataset"}, "parentProduct": {"href": "/mdr/sendig/dart-1-1", "title": "Standard for Exchange of Nonclinical Data Implementation Guide: Developmental and Reproductive Toxicology Version 1.1", "type": "Implementation Guide"}, "rootItem": {"href": "/mdr/root/sendig/datasets/SJ/variables/USUBJID", "title": "Version-agnostic anchor resource for SENDIG variable SJ.USUBJID", "type": "Root Data Element"}, "self": {"href": "/mdr/sendig/dart-1-1/datasets/SJ/variables/USUBJID", "title": "Unique Subject Identifier", "type": "SDTM Dataset Variable"}}, "core": "Req", "description": "Identifier used to uniquely identify a subject across all studies for all applications or submissions involving the product.", "label": "Unique Subject Identifier", "name": "USUBJID", "ordinal": "3", "role": "Identifier", "simpleDatatype": "Char"}, {"_links": {"modelDatasetVariable": {"href": "/mdr/sdtm/1-6/datasets/SJ/variables/SJSEQ", "title": "Sequence Number", "type": "SDTM Dataset Variable"}, "parentDataset": {"href": "/mdr/sendig/dart-1-1/datasets/SJ", "title": "Subject Repro Stages", "type": "SDTM Dataset"}, "parentProduct": {"href": "/mdr/sendig/dart-1-1", "title": "Standard for Exchange of Nonclinical Data Implementation Guide: Developmental and Reproductive Toxicology Version 1.1", "type": "Implementation Guide"}, "rootItem": {"href": "/mdr/root/sendig/datasets/SJ/variables/SJSEQ", "title": "Version-agnostic anchor resource for SENDIG variable SJ.SJSEQ", "type": "Root Data Element"}, "self": {"href": "/mdr/sendig/dart-1-1/datasets/SJ/variables/SJSEQ", "title": "Sequence Number", "type": "SDTM Dataset Variable"}}, "core": "Req", "description": "Sequence number to ensure uniqueness of subject records within a USUBJID within this domain in chronological order. May be any valid number.", "label": "Sequence Number", "name": "SJSEQ", "ordinal": "4", "role": "Identifier", "simpleDatatype": "Num"}, {"_links": {"modelDatasetVariable": {"href": "/mdr/sdtm/1-6/datasets/SJ/variables/RSTGCD", "title": "Repro Stage Code", "type": "SDTM Dataset Variable"}, "parentDataset": {"href": "/mdr/sendig/dart-1-1/datasets/SJ", "title": "Subject Repro Stages", "type": "SDTM Dataset"}, "parentProduct": {"href": "/mdr/sendig/dart-1-1", "title": "Standard for Exchange of Nonclinical Data Implementation Guide: Developmental and Reproductive Toxicology Version 1.1", "type": "Implementation Guide"}, "rootItem": {"href": "/mdr/root/sendig/datasets/SJ/variables/RSTGCD", "title": "Version-agnostic anchor resource for SENDIG variable SJ.RSTGCD", "type": "Root Data Element"}, "self": {"href": "/mdr/sendig/dart-1-1/datasets/SJ/variables/RSTGCD", "title": "Repro Stage Code", "type": "SDTM Dataset Variable"}}, "core": "Req", "description": "Short name of the Repro Stage used for programming and sorting. Maximum 8 characters. Does not have special character restrictions.", "label": "Repro Stage Code", "name": "RSTGCD", "ordinal": "5", "role": "Topic", "simpleDatatype": "Char"}, {"_links": {"modelDatasetVariable": {"href": "/mdr/sdtm/1-6/datasets/SJ/variables/RSTAGE", "title": "Description of Repro Stage", "type": "SDTM Dataset Variable"}, "parentDataset": {"href": "/mdr/sendig/dart-1-1/datasets/SJ", "title": "Subject Repro Stages", "type": "SDTM Dataset"}, "parentProduct": {"href": "/mdr/sendig/dart-1-1", "title": "Standard for Exchange of Nonclinical Data Implementation Guide: Developmental and Reproductive Toxicology Version 1.1", "type": "Implementation Guide"}, "rootItem": {"href": "/mdr/root/sendig/datasets/SJ/variables/RSTAGE", "title": "Version-agnostic anchor resource for SENDIG variable SJ.RSTAGE", "type": "Root Data Element"}, "self": {"href": "/mdr/sendig/dart-1-1/datasets/SJ/variables/RSTAGE", "title": "Description of Repro Stage", "type": "SDTM Dataset Variable"}}, "core": "Perm", "description": "Name of the Repro Stage. If RSTGCD has the value of UNPLAN, then RSTAGE should be null.", "label": "Description of Repro Stage", "name": "RSTAGE", "ordinal": "6", "role": "Synonym Qualifier", "simpleDatatype": "Char"}, {"_links": {"modelDatasetVariable": {"href": "/mdr/sdtm/1-6/datasets/SJ/variables/SJSTDTC", "title": "Start Date/Time of Repro Stage", "type": "SDTM Dataset Variable"}, "parentDataset": {"href": "/mdr/sendig/dart-1-1/datasets/SJ", "title": "Subject Repro Stages", "type": "SDTM Dataset"}, "parentProduct": {"href": "/mdr/sendig/dart-1-1", "title": "Standard for Exchange of Nonclinical Data Implementation Guide: Developmental and Reproductive Toxicology Version 1.1", "type": "Implementation Guide"}, "rootItem": {"href": "/mdr/root/sendig/datasets/SJ/variables/SJSTDTC", "title": "Version-agnostic anchor resource for SENDIG variable SJ.SJSTDTC", "type": "Root Data Element"}, "self": {"href": "/mdr/sendig/dart-1-1/datasets/SJ/variables/SJSTDTC", "title": "Start Date/Time of Repro Stage", "type": "SDTM Dataset Variable"}}, "core": "Req", "describedValueDomain": "ISO 8601", "description": "Start date/time for a Repro Stage for each subject in ISO 8601 character format.", "label": "Start Date/Time of Repro Stage", "name": "SJSTDTC", "ordinal": "7", "role": "Timing", "simpleDatatype": "Char"}, {"_links": {"modelDatasetVariable": {"href": "/mdr/sdtm/1-6/datasets/SJ/variables/SJENDTC", "title": "End Date/Time of Repro Stage", "type": "SDTM Dataset Variable"}, "parentDataset": {"href": "/mdr/sendig/dart-1-1/datasets/SJ", "title": "Subject Repro Stages", "type": "SDTM Dataset"}, "parentProduct": {"href": "/mdr/sendig/dart-1-1", "title": "Standard for Exchange of Nonclinical Data Implementation Guide: Developmental and Reproductive Toxicology Version 1.1", "type": "Implementation Guide"}, "rootItem": {"href": "/mdr/root/sendig/datasets/SJ/variables/SJENDTC", "title": "Version-agnostic anchor resource for SENDIG variable SJ.SJENDTC", "type": "Root Data Element"}, "self": {"href": "/mdr/sendig/dart-1-1/datasets/SJ/variables/SJENDTC", "title": "End Date/Time of Repro Stage", "type": "SDTM Dataset Variable"}}, "core": "Exp", "describedValueDomain": "ISO 8601", "description": "End date/time for a Repro Stage for each subject in ISO 8601 character format.", "label": "End Date/Time of Repro Stage", "name": "SJENDTC", "ordinal": "8", "role": "Timing", "simpleDatatype": "Char"}, {"_links": {"codelist": [{"href": "/mdr/root/ct/sendct/codelists/C124321", "title": "Version-agnostic anchor resource for codelist C124321", "type": "Root Value Domain"}], "modelDatasetVariable": {"href": "/mdr/sdtm/1-6/datasets/SJ/variables/RPHASE", "title": "Repro Phase", "type": "SDTM Dataset Variable"}, "parentDataset": {"href": "/mdr/sendig/dart-1-1/datasets/SJ", "title": "Subject Repro Stages", "type": "SDTM Dataset"}, "parentProduct": {"href": "/mdr/sendig/dart-1-1", "title": "Standard for Exchange of Nonclinical Data Implementation Guide: Developmental and Reproductive Toxicology Version 1.1", "type": "Implementation Guide"}, "rootItem": {"href": "/mdr/root/sendig/datasets/SJ/variables/RPHASE", "title": "Version-agnostic anchor resource for SENDIG variable SJ.RPHASE", "type": "Root Data Element"}, "self": {"href": "/mdr/sendig/dart-1-1/datasets/SJ/variables/RPHASE", "title": "Repro Phase", "type": "SDTM Dataset Variable"}}, "core": "Req", "description": "Name of the Reproductive Phase with which this Repro Stage of the Repro Path is associated. Defined in the TP domain. The RPHASE variable is required when any Repro Phase day variable is used.", "label": "Repro Phase", "name": "RPHASE", "ordinal": "9", "role": "Timing", "simpleDatatype": "Char"}, {"_links": {"modelDatasetVariable": {"href": "/mdr/sdtm/1-6/datasets/SJ/variables/SJUPDES", "title": "Description of Unplanned Repro Stage", "type": "SDTM Dataset Variable"}, "parentDataset": {"href": "/mdr/sendig/dart-1-1/datasets/SJ", "title": "Subject Repro Stages", "type": "SDTM Dataset"}, "parentProduct": {"href": "/mdr/sendig/dart-1-1", "title": "Standard for Exchange of Nonclinical Data Implementation Guide: Developmental and Reproductive Toxicology Version 1.1", "type": "Implementation Guide"}, "rootItem": {"href": "/mdr/root/sendig/datasets/SJ/variables/SJUPDES", "title": "Version-agnostic anchor resource for SENDIG variable SJ.SJUPDES", "type": "Root Data Element"}, "self": {"href": "/mdr/sendig/dart-1-1/datasets/SJ/variables/SJUPDES", "title": "Description of Unplanned Repro Stage", "type": "SDTM Dataset Variable"}}, "core": "Perm", "description": "Description of what happened to the subject during an unplanned Repro Stage. Used only if RSTGCD has the value of \"UNPLAN\".", "label": "Description of Unplanned Repro Stage", "name": "SJUPDES", "ordinal": "10", "role": "Synonym Qualifier", "simpleDatatype": "Char"}], "description": "Describes the actual order of reproductive stages that were experienced by the subject, together with the start date/time and end date/time for each reproductive stage. (Source: CDISC Controlled Terminology, SDOMAIN, C95099, 2018-06-29)", "label": "Subject Repro Stages", "name": "SJ", "ordinal": "1"}, {"_links": {"modelDataset": {"href": "/mdr/sdtm/1-6/datasets/DM", "title": "Demographics", "type": "SDTM Dataset"}, "parentClass": {"href": "/mdr/sendig/dart-1-1/classes/SpecialPurpose", "title": "Special-Purpose Datasets", "type": "Class"}, "parentProduct": {"href": "/mdr/sendig/dart-1-1", "title": "Standard for Exchange of Nonclinical Data Implementation Guide: Developmental and Reproductive Toxicology Version 1.1", "type": "Implementation Guide"}, "self": {"href": "/mdr/sendig/dart-1-1/datasets/DM", "title": "Demographics", "type": "SDTM Dataset"}}, "datasetStructure": "One record per subject", "datasetVariables": [{"_links": {"modelDatasetVariable": {"href": "/mdr/sdtm/1-6/datasets/DM/variables/STUDYID", "title": "Study Identifier", "type": "SDTM Dataset Variable"}, "parentDataset": {"href": "/mdr/sendig/dart-1-1/datasets/DM", "title": "Demographics", "type": "SDTM Dataset"}, "parentProduct": {"href": "/mdr/sendig/dart-1-1", "title": "Standard for Exchange of Nonclinical Data Implementation Guide: Developmental and Reproductive Toxicology Version 1.1", "type": "Implementation Guide"}, "rootItem": {"href": "/mdr/root/sendig/datasets/DM/variables/STUDYID", "title": "Version-agnostic anchor resource for SENDIG variable DM.STUDYID", "type": "Root Data Element"}, "self": {"href": "/mdr/sendig/dart-1-1/datasets/DM/variables/STUDYID", "title": "Study Identifier", "type": "SDTM Dataset Variable"}}, "core": "Req", "description": "Unique identifier for a study.", "label": "Study Identifier", "name": "STUDYID", "ordinal": "1", "role": "Identifier", "simpleDatatype": "Char"}, {"_links": {"modelDatasetVariable": {"href": "/mdr/sdtm/1-6/datasets/DM/variables/DOMAIN", "title": "Domain Abbreviation", "type": "SDTM Dataset Variable"}, "parentDataset": {"href": "/mdr/sendig/dart-1-1/datasets/DM", "title": "Demographics", "type": "SDTM Dataset"}, "parentProduct": {"href": "/mdr/sendig/dart-1-1", "title": "Standard for Exchange of Nonclinical Data Implementation Guide: Developmental and Reproductive Toxicology Version 1.1", "type": "Implementation Guide"}, "rootItem": {"href": "/mdr/root/sendig/datasets/DM/variables/DOMAIN", "title": "Version-agnostic anchor resource for SENDIG variable DM.DOMAIN", "type": "Root Data Element"}, "self": {"href": "/mdr/sendig/dart-1-1/datasets/DM/variables/DOMAIN", "title": "Domain Abbreviation", "type": "SDTM Dataset Variable"}}, "core": "Req", "description": "Two-character abbreviation for the domain.", "label": "Domain Abbreviation", "name": "DOMAIN", "ordinal": "2", "role": "Identifier", "simpleDatatype": "Char", "valueList": ["DM"]}, {"_links": {"modelDatasetVariable": {"href": "/mdr/sdtm/1-6/datasets/DM/variables/USUBJID", "title": "Unique Subject Identifier", "type": "SDTM Dataset Variable"}, "parentDataset": {"href": "/mdr/sendig/dart-1-1/datasets/DM", "title": "Demographics", "type": "SDTM Dataset"}, "parentProduct": {"href": "/mdr/sendig/dart-1-1", "title": "Standard for Exchange of Nonclinical Data Implementation Guide: Developmental and Reproductive Toxicology Version 1.1", "type": "Implementation Guide"}, "rootItem": {"href": "/mdr/root/sendig/datasets/DM/variables/USUBJID", "title": "Version-agnostic anchor resource for SENDIG variable DM.USUBJID", "type": "Root Data Element"}, "self": {"href": "/mdr/sendig/dart-1-1/datasets/DM/variables/USUBJID", "title": "Unique Subject Identifier", "type": "SDTM Dataset Variable"}}, "core": "Req", "description": "Identifier used to uniquely identify a subject across all studies for all applications or submissions involving the product.", "label": "Unique Subject Identifier", "name": "USUBJID", "ordinal": "3", "role": "Identifier", "simpleDatatype": "Char"}, {"_links": {"modelDatasetVariable": {"href": "/mdr/sdtm/1-6/datasets/DM/variables/SUBJID", "title": "Subject Identifier for the Study", "type": "SDTM Dataset Variable"}, "parentDataset": {"href": "/mdr/sendig/dart-1-1/datasets/DM", "title": "Demographics", "type": "SDTM Dataset"}, "parentProduct": {"href": "/mdr/sendig/dart-1-1", "title": "Standard for Exchange of Nonclinical Data Implementation Guide: Developmental and Reproductive Toxicology Version 1.1", "type": "Implementation Guide"}, "rootItem": {"href": "/mdr/root/sendig/datasets/DM/variables/SUBJID", "title": "Version-agnostic anchor resource for SENDIG variable DM.SUBJID", "type": "Root Data Element"}, "self": {"href": "/mdr/sendig/dart-1-1/datasets/DM/variables/SUBJID", "title": "Subject Identifier for the Study", "type": "SDTM Dataset Variable"}}, "core": "Req", "description": "Subject (i.e., Animal) identifier used within the study.", "label": "Subject Identifier for the Study", "name": "SUBJID", "ordinal": "4", "role": "Topic", "simpleDatatype": "Char"}, {"_links": {"modelDatasetVariable": {"href": "/mdr/sdtm/1-6/datasets/DM/variables/RFSTDTC", "title": "Subject Reference Start Date/Time", "type": "SDTM Dataset Variable"}, "parentDataset": {"href": "/mdr/sendig/dart-1-1/datasets/DM", "title": "Demographics", "type": "SDTM Dataset"}, "parentProduct": {"href": "/mdr/sendig/dart-1-1", "title": "Standard for Exchange of Nonclinical Data Implementation Guide: Developmental and Reproductive Toxicology Version 1.1", "type": "Implementation Guide"}, "rootItem": {"href": "/mdr/root/sendig/datasets/DM/variables/RFSTDTC", "title": "Version-agnostic anchor resource for SENDIG variable DM.RFSTDTC", "type": "Root Data Element"}, "self": {"href": "/mdr/sendig/dart-1-1/datasets/DM/variables/RFSTDTC", "title": "Subject Reference Start Date/Time", "type": "SDTM Dataset Variable"}}, "core": "Req", "describedValueDomain": "ISO 8601", "description": "Reference start date/time for the subject in ISO 8601 format. Usually equivalent to date/time when subject was first exposed to study treatment. Study day calculation (the --DY variable) in all domains will be based on this date. The sponsor must define what collected date is used to populate RFSTDTC in the data definition file.", "label": "Subject Reference Start Date/Time", "name": "RFSTDTC", "ordinal": "5", "role": "Record Qualifier", "simpleDatatype": "Char"}, {"_links": {"modelDatasetVariable": {"href": "/mdr/sdtm/1-6/datasets/DM/variables/RFENDTC", "title": "Subject Reference End Date/Time", "type": "SDTM Dataset Variable"}, "parentDataset": {"href": "/mdr/sendig/dart-1-1/datasets/DM", "title": "Demographics", "type": "SDTM Dataset"}, "parentProduct": {"href": "/mdr/sendig/dart-1-1", "title": "Standard for Exchange of Nonclinical Data Implementation Guide: Developmental and Reproductive Toxicology Version 1.1", "type": "Implementation Guide"}, "rootItem": {"href": "/mdr/root/sendig/datasets/DM/variables/RFENDTC", "title": "Version-agnostic anchor resource for SENDIG variable DM.RFENDTC", "type": "Root Data Element"}, "self": {"href": "/mdr/sendig/dart-1-1/datasets/DM/variables/RFENDTC", "title": "Subject Reference End Date/Time", "type": "SDTM Dataset Variable"}}, "core": "Exp", "describedValueDomain": "ISO 8601", "description": "Reference end date/time for the subject in ISO 8601 format. Usually equivalent to the date/time when the subject was determined to have left the study. The sponsor must define what collected date is used to populate RFENDTC in the data definition file.", "label": "Subject Reference End Date/Time", "name": "RFENDTC", "ordinal": "6", "role": "Record Qualifier", "simpleDatatype": "Char"}, {"_links": {"modelDatasetVariable": {"href": "/mdr/sdtm/1-6/datasets/DM/variables/RFXSTDTC", "title": "Date/Time of First Study Treatment", "type": "SDTM Dataset Variable"}, "parentDataset": {"href": "/mdr/sendig/dart-1-1/datasets/DM", "title": "Demographics", "type": "SDTM Dataset"}, "parentProduct": {"href": "/mdr/sendig/dart-1-1", "title": "Standard for Exchange of Nonclinical Data Implementation Guide: Developmental and Reproductive Toxicology Version 1.1", "type": "Implementation Guide"}, "rootItem": {"href": "/mdr/root/sendig/datasets/DM/variables/RFXSTDTC", "title": "Version-agnostic anchor resource for SENDIG variable DM.RFXSTDTC", "type": "Root Data Element"}, "self": {"href": "/mdr/sendig/dart-1-1/datasets/DM/variables/RFXSTDTC", "title": "Date/Time of First Study Treatment", "type": "SDTM Dataset Variable"}}, "core": "Exp", "describedValueDomain": "ISO 8601", "description": "First date of exposure to any protocol-specified treatment in ISO 8601 character format. Equal to the earliest value of EXSTDTC.", "label": "Date/Time of First Study Treatment", "name": "RFXSTDTC", "ordinal": "7", "role": "Record Qualifier", "simpleDatatype": "Char"}, {"_links": {"modelDatasetVariable": {"href": "/mdr/sdtm/1-6/datasets/DM/variables/RFXENDTC", "title": "Date/Time of Last Study Treatment", "type": "SDTM Dataset Variable"}, "parentDataset": {"href": "/mdr/sendig/dart-1-1/datasets/DM", "title": "Demographics", "type": "SDTM Dataset"}, "parentProduct": {"href": "/mdr/sendig/dart-1-1", "title": "Standard for Exchange of Nonclinical Data Implementation Guide: Developmental and Reproductive Toxicology Version 1.1", "type": "Implementation Guide"}, "rootItem": {"href": "/mdr/root/sendig/datasets/DM/variables/RFXENDTC", "title": "Version-agnostic anchor resource for SENDIG variable DM.RFXENDTC", "type": "Root Data Element"}, "self": {"href": "/mdr/sendig/dart-1-1/datasets/DM/variables/RFXENDTC", "title": "Date/Time of Last Study Treatment", "type": "SDTM Dataset Variable"}}, "core": "Exp", "describedValueDomain": "ISO 8601", "description": "Last date of exposure to any protocol-specified treatment in ISO 8601 character format. Equal to the latest value of EXENDTC (or the latest value of EXSTDTC if EXENDTC was not collected).", "label": "Date/Time of Last Study Treatment", "name": "RFXENDTC", "ordinal": "8", "role": "Record Qualifier", "simpleDatatype": "Char"}, {"_links": {"modelDatasetVariable": {"href": "/mdr/sdtm/1-6/datasets/DM/variables/SITEID", "title": "Study Site Identifier", "type": "SDTM Dataset Variable"}, "parentDataset": {"href": "/mdr/sendig/dart-1-1/datasets/DM", "title": "Demographics", "type": "SDTM Dataset"}, "parentProduct": {"href": "/mdr/sendig/dart-1-1", "title": "Standard for Exchange of Nonclinical Data Implementation Guide: Developmental and Reproductive Toxicology Version 1.1", "type": "Implementation Guide"}, "rootItem": {"href": "/mdr/root/sendig/datasets/DM/variables/SITEID", "title": "Version-agnostic anchor resource for SENDIG variable DM.SITEID", "type": "Root Data Element"}, "self": {"href": "/mdr/sendig/dart-1-1/datasets/DM/variables/SITEID", "title": "Study Site Identifier", "type": "SDTM Dataset Variable"}}, "core": "Perm", "description": "Unique identifier for a study site within a submission. Use only if subjects are housed at different sites.", "label": "Study Site Identifier", "name": "SITEID", "ordinal": "9", "role": "Record Qualifier", "simpleDatatype": "Char"}, {"_links": {"modelDatasetVariable": {"href": "/mdr/sdtm/1-6/datasets/DM/variables/BRTHDTC", "title": "Date/Time of Birth", "type": "SDTM Dataset Variable"}, "parentDataset": {"href": "/mdr/sendig/dart-1-1/datasets/DM", "title": "Demographics", "type": "SDTM Dataset"}, "parentProduct": {"href": "/mdr/sendig/dart-1-1", "title": "Standard for Exchange of Nonclinical Data Implementation Guide: Developmental and Reproductive Toxicology Version 1.1", "type": "Implementation Guide"}, "rootItem": {"href": "/mdr/root/sendig/datasets/DM/variables/BRTHDTC", "title": "Version-agnostic anchor resource for SENDIG variable DM.BRTHDTC", "type": "Root Data Element"}, "self": {"href": "/mdr/sendig/dart-1-1/datasets/DM/variables/BRTHDTC", "title": "Date/Time of Birth", "type": "SDTM Dataset Variable"}}, "core": "Perm", "describedValueDomain": "ISO 8601", "description": "Date/Time of birth of the subject, in ISO 8601 format.", "label": "Date/Time of Birth", "name": "BRTHDTC", "ordinal": "10", "role": "Record Qualifier", "simpleDatatype": "Char"}, {"_links": {"modelDatasetVariable": {"href": "/mdr/sdtm/1-6/datasets/DM/variables/AGE", "title": "Age", "type": "SDTM Dataset Variable"}, "parentDataset": {"href": "/mdr/sendig/dart-1-1/datasets/DM", "title": "Demographics", "type": "SDTM Dataset"}, "parentProduct": {"href": "/mdr/sendig/dart-1-1", "title": "Standard for Exchange of Nonclinical Data Implementation Guide: Developmental and Reproductive Toxicology Version 1.1", "type": "Implementation Guide"}, "rootItem": {"href": "/mdr/root/sendig/datasets/DM/variables/AGE", "title": "Version-agnostic anchor resource for SENDIG variable DM.AGE", "type": "Root Data Element"}, "self": {"href": "/mdr/sendig/dart-1-1/datasets/DM/variables/AGE", "title": "Age", "type": "SDTM Dataset Variable"}}, "core": "Perm", "description": "May be derived (RFSTDTC - BRTHDTC), but BRTHDTC may not be available in all cases. Age may also be collected.", "label": "Age", "name": "AGE", "ordinal": "11", "role": "Record Qualifier", "simpleDatatype": "Num"}, {"_links": {"modelDatasetVariable": {"href": "/mdr/sdtm/1-6/datasets/DM/variables/AGETXT", "title": "Age Text", "type": "SDTM Dataset Variable"}, "parentDataset": {"href": "/mdr/sendig/dart-1-1/datasets/DM", "title": "Demographics", "type": "SDTM Dataset"}, "parentProduct": {"href": "/mdr/sendig/dart-1-1", "title": "Standard for Exchange of Nonclinical Data Implementation Guide: Developmental and Reproductive Toxicology Version 1.1", "type": "Implementation Guide"}, "rootItem": {"href": "/mdr/root/sendig/datasets/DM/variables/AGETXT", "title": "Version-agnostic anchor resource for SENDIG variable DM.AGETXT", "type": "Root Data Element"}, "self": {"href": "/mdr/sendig/dart-1-1/datasets/DM/variables/AGETXT", "title": "Age Range", "type": "SDTM Dataset Variable"}}, "core": "Perm", "describedValueDomain": "number-number", "description": "Used when the age is a range and the exact birthdate is not known. This variable is a character field for the purposes of defining age ranges, e.g., if the information available for the age of the subject is 6-8 and AGEU is WEEKS. Populate only when BRTHDTC or AGE is not specified. The format for AGETXT is \"number-number\" (e.g., 6-8).", "label": "Age Range", "name": "AGETXT", "ordinal": "12", "role": "Record Qualifier", "simpleDatatype": "Char"}, {"_links": {"codelist": [{"href": "/mdr/root/ct/sendct/codelists/C66781", "title": "Version-agnostic anchor resource for codelist C66781", "type": "Root Value Domain"}], "modelDatasetVariable": {"href": "/mdr/sdtm/1-6/datasets/DM/variables/AGEU", "title": "Age Units", "type": "SDTM Dataset Variable"}, "parentDataset": {"href": "/mdr/sendig/dart-1-1/datasets/DM", "title": "Demographics", "type": "SDTM Dataset"}, "parentProduct": {"href": "/mdr/sendig/dart-1-1", "title": "Standard for Exchange of Nonclinical Data Implementation Guide: Developmental and Reproductive Toxicology Version 1.1", "type": "Implementation Guide"}, "rootItem": {"href": "/mdr/root/sendig/datasets/DM/variables/AGEU", "title": "Version-agnostic anchor resource for SENDIG variable DM.AGEU", "type": "Root Data Element"}, "self": {"href": "/mdr/sendig/dart-1-1/datasets/DM/variables/AGEU", "title": "Age Unit", "type": "SDTM Dataset Variable"}}, "core": "Exp", "description": "Units associated with AGE and AGETXT.", "label": "Age Unit", "name": "AGEU", "ordinal": "13", "role": "Variable Qualifier", "simpleDatatype": "Char"}, {"_links": {"codelist": [{"href": "/mdr/root/ct/sendct/codelists/C66731", "title": "Version-agnostic anchor resource for codelist C66731", "type": "Root Value Domain"}], "modelDatasetVariable": {"href": "/mdr/sdtm/1-6/datasets/DM/variables/SEX", "title": "Sex", "type": "SDTM Dataset Variable"}, "parentDataset": {"href": "/mdr/sendig/dart-1-1/datasets/DM", "title": "Demographics", "type": "SDTM Dataset"}, "parentProduct": {"href": "/mdr/sendig/dart-1-1", "title": "Standard for Exchange of Nonclinical Data Implementation Guide: Developmental and Reproductive Toxicology Version 1.1", "type": "Implementation Guide"}, "rootItem": {"href": "/mdr/root/sendig/datasets/DM/variables/SEX", "title": "Version-agnostic anchor resource for SENDIG variable DM.SEX", "type": "Root Data Element"}, "self": {"href": "/mdr/sendig/dart-1-1/datasets/DM/variables/SEX", "title": "Sex", "type": "SDTM Dataset Variable"}}, "core": "Req", "description": "The sex of the subject.", "label": "Sex", "name": "SEX", "ordinal": "14", "role": "Record Qualifier", "simpleDatatype": "Char"}, {"_links": {"codelist": [{"href": "/mdr/root/ct/sendct/codelists/C77808", "title": "Version-agnostic anchor resource for codelist C77808", "type": "Root Value Domain"}], "modelDatasetVariable": {"href": "/mdr/sdtm/1-6/datasets/DM/variables/SPECIES", "title": "Species", "type": "SDTM Dataset Variable"}, "parentDataset": {"href": "/mdr/sendig/dart-1-1/datasets/DM", "title": "Demographics", "type": "SDTM Dataset"}, "parentProduct": {"href": "/mdr/sendig/dart-1-1", "title": "Standard for Exchange of Nonclinical Data Implementation Guide: Developmental and Reproductive Toxicology Version 1.1", "type": "Implementation Guide"}, "rootItem": {"href": "/mdr/root/sendig/datasets/DM/variables/SPECIES", "title": "Version-agnostic anchor resource for SENDIG variable DM.SPECIES", "type": "Root Data Element"}, "self": {"href": "/mdr/sendig/dart-1-1/datasets/DM/variables/SPECIES", "title": "Species", "type": "SDTM Dataset Variable"}}, "core": "Perm", "description": "If this variable is excluded in the DM domain, the information must be present at a higher level (either Trial Sets or Trial Summary).", "label": "Species", "name": "SPECIES", "ordinal": "15", "role": "Record Qualifier", "simpleDatatype": "Char"}, {"_links": {"codelist": [{"href": "/mdr/root/ct/sendct/codelists/C77530", "title": "Version-agnostic anchor resource for codelist C77530", "type": "Root Value Domain"}], "modelDatasetVariable": {"href": "/mdr/sdtm/1-6/datasets/DM/variables/STRAIN", "title": "Strain/Substrain", "type": "SDTM Dataset Variable"}, "parentDataset": {"href": "/mdr/sendig/dart-1-1/datasets/DM", "title": "Demographics", "type": "SDTM Dataset"}, "parentProduct": {"href": "/mdr/sendig/dart-1-1", "title": "Standard for Exchange of Nonclinical Data Implementation Guide: Developmental and Reproductive Toxicology Version 1.1", "type": "Implementation Guide"}, "rootItem": {"href": "/mdr/root/sendig/datasets/DM/variables/STRAIN", "title": "Version-agnostic anchor resource for SENDIG variable DM.STRAIN", "type": "Root Data Element"}, "self": {"href": "/mdr/sendig/dart-1-1/datasets/DM/variables/STRAIN", "title": "Strain/Substrain", "type": "SDTM Dataset Variable"}}, "core": "Perm", "description": "Used to identify the vendor-supplied strain, substrain, or breed designation for the test system under study. It may combine the background strain, substrain, and associated genetic modifications as supplied by the vendor (e.g., C57BL/6, A/J, B6.129-Pparg<tm2Rev>/J, FISCHER 344, SPRAGUE-DAWLEY IGS, WISTAR Kyoto, BEAGLE, CYNOMOLGUS, and CHIMPANZEE). The SEND Controlled Terminology codelist consists of commonly used wild type strains. It is extensible to accommodate strains not listed and genetically modified substrains. If this variable is excluded in the DM domain, the information must be present at a higher level (either Trial Sets or Trial Summary). Country of origin for non-human primates should not go into STRAIN. In general, details related to coat color (e.g., White and Red designations for New Zealand Rabbits) should not go into STRAIN.", "label": "Strain/Substrain", "name": "STRAIN", "ordinal": "16", "role": "Record Qualifier", "simpleDatatype": "Char"}, {"_links": {"modelDatasetVariable": {"href": "/mdr/sdtm/1-6/datasets/DM/variables/SBSTRAIN", "title": "Strain/Substrain Details", "type": "SDTM Dataset Variable"}, "parentDataset": {"href": "/mdr/sendig/dart-1-1/datasets/DM", "title": "Demographics", "type": "SDTM Dataset"}, "parentProduct": {"href": "/mdr/sendig/dart-1-1", "title": "Standard for Exchange of Nonclinical Data Implementation Guide: Developmental and Reproductive Toxicology Version 1.1", "type": "Implementation Guide"}, "rootItem": {"href": "/mdr/root/sendig/datasets/DM/variables/SBSTRAIN", "title": "Version-agnostic anchor resource for SENDIG variable DM.SBSTRAIN", "type": "Root Data Element"}, "self": {"href": "/mdr/sendig/dart-1-1/datasets/DM/variables/SBSTRAIN", "title": "Strain/Substrain Details", "type": "SDTM Dataset Variable"}}, "core": "Perm", "description": "Free-text field that allows the sponsor to enter further details qualifiying the SPECIES and/or STRAIN, depending on the level to which these variables were defined. Examples include the description of a specific genetic alteration, country of origin for non-human primates, details related to coat color (e.g., White and Red designations for New Zealand Rabbits), and important animal husbandry information (e.g., SPF, BR, VAF).", "label": "Strain/Substrain Details", "name": "SBSTRAIN", "ordinal": "17", "role": "Record Qualifier", "simpleDatatype": "Char"}, {"_links": {"modelDatasetVariable": {"href": "/mdr/sdtm/1-6/datasets/DM/variables/ARMCD", "title": "Planned Arm Code", "type": "SDTM Dataset Variable"}, "parentDataset": {"href": "/mdr/sendig/dart-1-1/datasets/DM", "title": "Demographics", "type": "SDTM Dataset"}, "parentProduct": {"href": "/mdr/sendig/dart-1-1", "title": "Standard for Exchange of Nonclinical Data Implementation Guide: Developmental and Reproductive Toxicology Version 1.1", "type": "Implementation Guide"}, "rootItem": {"href": "/mdr/root/sendig/datasets/DM/variables/ARMCD", "title": "Version-agnostic anchor resource for SENDIG variable DM.ARMCD", "type": "Root Data Element"}, "self": {"href": "/mdr/sendig/dart-1-1/datasets/DM/variables/ARMCD", "title": "Planned Arm Code", "type": "SDTM Dataset Variable"}}, "core": "Exp", "description": "Short name for ARM (may be up to 20 characters) used for sorting and programming. Should be populated when Arms have been defined in the TA domain.", "label": "Planned Arm Code", "name": "ARMCD", "ordinal": "18", "role": "Record Qualifier", "simpleDatatype": "Char"}, {"_links": {"modelDatasetVariable": {"href": "/mdr/sdtm/1-6/datasets/DM/variables/ARM", "title": "Description of Planned Arm", "type": "SDTM Dataset Variable"}, "parentDataset": {"href": "/mdr/sendig/dart-1-1/datasets/DM", "title": "Demographics", "type": "SDTM Dataset"}, "parentProduct": {"href": "/mdr/sendig/dart-1-1", "title": "Standard for Exchange of Nonclinical Data Implementation Guide: Developmental and Reproductive Toxicology Version 1.1", "type": "Implementation Guide"}, "rootItem": {"href": "/mdr/root/sendig/datasets/DM/variables/ARM", "title": "Version-agnostic anchor resource for SENDIG variable DM.ARM", "type": "Root Data Element"}, "self": {"href": "/mdr/sendig/dart-1-1/datasets/DM/variables/ARM", "title": "Description of Planned Arm", "type": "SDTM Dataset Variable"}}, "core": "Perm", "description": "Descriptive name given to a specific Trial Arm (e.g., Low Dose, Mid Dose, 10 mg/kg/day dose, Third Arm) to which the subject was assigned.", "label": "Description of Planned Arm", "name": "ARM", "ordinal": "19", "role": "Synonym Qualifier", "simpleDatatype": "Char"}, {"_links": {"modelDatasetVariable": {"href": "/mdr/sdtm/1-6/datasets/DM/variables/SETCD", "title": "Set Code", "type": "SDTM Dataset Variable"}, "parentDataset": {"href": "/mdr/sendig/dart-1-1/datasets/DM", "title": "Demographics", "type": "SDTM Dataset"}, "parentProduct": {"href": "/mdr/sendig/dart-1-1", "title": "Standard for Exchange of Nonclinical Data Implementation Guide: Developmental and Reproductive Toxicology Version 1.1", "type": "Implementation Guide"}, "rootItem": {"href": "/mdr/root/sendig/datasets/DM/variables/SETCD", "title": "Version-agnostic anchor resource for SENDIG variable DM.SETCD", "type": "Root Data Element"}, "self": {"href": "/mdr/sendig/dart-1-1/datasets/DM/variables/SETCD", "title": "Set Code", "type": "SDTM Dataset Variable"}}, "core": "Req", "description": "Short name of a specific Trial Set to which the subject was assigned, as defined by the sponsor. Maximum of 8 characters. This represents the Trial Set for which parameters are being submitted.", "label": "Set Code", "name": "SETCD", "ordinal": "20", "role": "Record Qualifier", "simpleDatatype": "Char"}, {"_links": {"modelDatasetVariable": {"href": "/mdr/sdtm/1-6/datasets/DM/variables/RPATHCD", "title": "Planned Repro Path Code", "type": "SDTM Dataset Variable"}, "parentDataset": {"href": "/mdr/sendig/dart-1-1/datasets/DM", "title": "Demographics", "type": "SDTM Dataset"}, "parentProduct": {"href": "/mdr/sendig/dart-1-1", "title": "Standard for Exchange of Nonclinical Data Implementation Guide: Developmental and Reproductive Toxicology Version 1.1", "type": "Implementation Guide"}, "rootItem": {"href": "/mdr/root/sendig/datasets/DM/variables/RPATHCD", "title": "Version-agnostic anchor resource for SENDIG variable DM.RPATHCD", "type": "Root Data Element"}, "self": {"href": "/mdr/sendig/dart-1-1/datasets/DM/variables/RPATHCD", "title": "Planned Repro Path Code", "type": "SDTM Dataset Variable"}}, "core": "Exp", "description": "Short name for the planned Repro Path (RPATH) to which the subject was assigned in the TP domain. Limited to 20 characters.", "label": "Planned Repro Path Code", "name": "RPATHCD", "ordinal": "21", "role": "Record Qualifier", "simpleDatatype": "Char"}], "description": "A special-purpose domain that includes a set of essential standard variables that describe each subject in a clinical study. It is the parent domain for all other observations for human clinical subjects. (Source: CDISC Controlled Terminology, SDOMAIN, C49572, 2018-06-29)", "label": "Demographics", "name": "DM", "ordinal": "101"}, {"_links": {"modelDataset": {"href": "/mdr/sdtm/1-6/datasets/CO", "title": "Comments", "type": "SDTM Dataset"}, "parentClass": {"href": "/mdr/sendig/dart-1-1/classes/SpecialPurpose", "title": "Special-Purpose Datasets", "type": "Class"}, "parentProduct": {"href": "/mdr/sendig/dart-1-1", "title": "Standard for Exchange of Nonclinical Data Implementation Guide: Developmental and Reproductive Toxicology Version 1.1", "type": "Implementation Guide"}, "self": {"href": "/mdr/sendig/dart-1-1/datasets/CO", "title": "Comments", "type": "SDTM Dataset"}}, "datasetStructure": "One record per comment", "datasetVariables": [{"_links": {"modelDatasetVariable": {"href": "/mdr/sdtm/1-6/datasets/CO/variables/STUDYID", "title": "Study Identifier", "type": "SDTM Dataset Variable"}, "parentDataset": {"href": "/mdr/sendig/dart-1-1/datasets/CO", "title": "Comments", "type": "SDTM Dataset"}, "parentProduct": {"href": "/mdr/sendig/dart-1-1", "title": "Standard for Exchange of Nonclinical Data Implementation Guide: Developmental and Reproductive Toxicology Version 1.1", "type": "Implementation Guide"}, "rootItem": {"href": "/mdr/root/sendig/datasets/CO/variables/STUDYID", "title": "Version-agnostic anchor resource for SENDIG variable CO.STUDYID", "type": "Root Data Element"}, "self": {"href": "/mdr/sendig/dart-1-1/datasets/CO/variables/STUDYID", "title": "Study Identifier", "type": "SDTM Dataset Variable"}}, "core": "Req", "description": "Unique identifier for a study.", "label": "Study Identifier", "name": "STUDYID", "ordinal": "1", "role": "Identifier", "simpleDatatype": "Char"}, {"_links": {"modelDatasetVariable": {"href": "/mdr/sdtm/1-6/datasets/CO/variables/DOMAIN", "title": "Domain Abbreviation", "type": "SDTM Dataset Variable"}, "parentDataset": {"href": "/mdr/sendig/dart-1-1/datasets/CO", "title": "Comments", "type": "SDTM Dataset"}, "parentProduct": {"href": "/mdr/sendig/dart-1-1", "title": "Standard for Exchange of Nonclinical Data Implementation Guide: Developmental and Reproductive Toxicology Version 1.1", "type": "Implementation Guide"}, "rootItem": {"href": "/mdr/root/sendig/datasets/CO/variables/DOMAIN", "title": "Version-agnostic anchor resource for SENDIG variable CO.DOMAIN", "type": "Root Data Element"}, "self": {"href": "/mdr/sendig/dart-1-1/datasets/CO/variables/DOMAIN", "title": "Domain Abbreviation", "type": "SDTM Dataset Variable"}}, "core": "Req", "description": "Two-character abbreviation for the domain.", "label": "Domain Abbreviation", "name": "DOMAIN", "ordinal": "2", "role": "Identifier", "simpleDatatype": "Char", "valueList": ["CO"]}, {"_links": {"modelDatasetVariable": {"href": "/mdr/sdtm/1-6/datasets/CO/variables/RDOMAIN", "title": "Related Domain Abbreviation", "type": "SDTM Dataset Variable"}, "parentDataset": {"href": "/mdr/sendig/dart-1-1/datasets/CO", "title": "Comments", "type": "SDTM Dataset"}, "parentProduct": {"href": "/mdr/sendig/dart-1-1", "title": "Standard for Exchange of Nonclinical Data Implementation Guide: Developmental and Reproductive Toxicology Version 1.1", "type": "Implementation Guide"}, "rootItem": {"href": "/mdr/root/sendig/datasets/CO/variables/RDOMAIN", "title": "Version-agnostic anchor resource for SENDIG variable CO.RDOMAIN", "type": "Root Data Element"}, "self": {"href": "/mdr/sendig/dart-1-1/datasets/CO/variables/RDOMAIN", "title": "Related Domain Abbreviation", "type": "SDTM Dataset Variable"}}, "core": "Exp", "description": "Domain abbreviation of the parent record(s). Null for comments collected as a general comment or additional information.", "label": "Related Domain Abbreviation", "name": "RDOMAIN", "ordinal": "3", "role": "Record Qualifier", "simpleDatatype": "Char"}, {"_links": {"modelDatasetVariable": {"href": "/mdr/sdtm/1-6/datasets/CO/variables/USUBJID", "title": "Unique Subject Identifier", "type": "SDTM Dataset Variable"}, "parentDataset": {"href": "/mdr/sendig/dart-1-1/datasets/CO", "title": "Comments", "type": "SDTM Dataset"}, "parentProduct": {"href": "/mdr/sendig/dart-1-1", "title": "Standard for Exchange of Nonclinical Data Implementation Guide: Developmental and Reproductive Toxicology Version 1.1", "type": "Implementation Guide"}, "rootItem": {"href": "/mdr/root/sendig/datasets/CO/variables/USUBJID", "title": "Version-agnostic anchor resource for SENDIG variable CO.USUBJID", "type": "Root Data Element"}, "self": {"href": "/mdr/sendig/dart-1-1/datasets/CO/variables/USUBJID", "title": "Unique Subject Identifier", "type": "SDTM Dataset Variable"}}, "core": "Exp", "description": "Identifier used to uniquely identify a subject across all studies for all applications or submissions involving the product. Either USUBJID or POOLID must be populated unless the record contains a study comment unrelated to a USUBJID or POOLID.", "label": "Unique Subject Identifier", "name": "USUBJID", "ordinal": "4", "role": "Identifier", "simpleDatatype": "Char"}, {"_links": {"modelDatasetVariable": {"href": "/mdr/sdtm/1-6/datasets/CO/variables/POOLID", "title": "Pool Identifier", "type": "SDTM Dataset Variable"}, "parentDataset": {"href": "/mdr/sendig/dart-1-1/datasets/CO", "title": "Comments", "type": "SDTM Dataset"}, "parentProduct": {"href": "/mdr/sendig/dart-1-1", "title": "Standard for Exchange of Nonclinical Data Implementation Guide: Developmental and Reproductive Toxicology Version 1.1", "type": "Implementation Guide"}, "rootItem": {"href": "/mdr/root/sendig/datasets/CO/variables/POOLID", "title": "Version-agnostic anchor resource for SENDIG variable CO.POOLID", "type": "Root Data Element"}, "self": {"href": "/mdr/sendig/dart-1-1/datasets/CO/variables/POOLID", "title": "Pool Identifier", "type": "SDTM Dataset Variable"}}, "core": "Perm", "description": "Identifier used for pooled subjects to assign a single result to multiple subjects. Either USUBJID or POOLID must be populated unless the record contains a study comment unrelated to a USUBJID or POOLID.", "label": "Pool Identifier", "name": "POOLID", "ordinal": "5", "role": "Identifier", "simpleDatatype": "Char"}, {"_links": {"modelDatasetVariable": {"href": "/mdr/sdtm/1-6/datasets/CO/variables/COSEQ", "title": "Sequence Number", "type": "SDTM Dataset Variable"}, "parentDataset": {"href": "/mdr/sendig/dart-1-1/datasets/CO", "title": "Comments", "type": "SDTM Dataset"}, "parentProduct": {"href": "/mdr/sendig/dart-1-1", "title": "Standard for Exchange of Nonclinical Data Implementation Guide: Developmental and Reproductive Toxicology Version 1.1", "type": "Implementation Guide"}, "rootItem": {"href": "/mdr/root/sendig/datasets/CO/variables/COSEQ", "title": "Version-agnostic anchor resource for SENDIG variable CO.COSEQ", "type": "Root Data Element"}, "self": {"href": "/mdr/sendig/dart-1-1/datasets/CO/variables/COSEQ", "title": "Sequence Number", "type": "SDTM Dataset Variable"}}, "core": "Req", "description": "The sequence number must be unique for each record within a USUBJID or POOLID, whichever applies for the record.", "label": "Sequence Number", "name": "COSEQ", "ordinal": "6", "role": "Identifier", "simpleDatatype": "Num"}, {"_links": {"modelDatasetVariable": {"href": "/mdr/sdtm/1-6/datasets/CO/variables/IDVAR", "title": "Identifying Variable", "type": "SDTM Dataset Variable"}, "parentDataset": {"href": "/mdr/sendig/dart-1-1/datasets/CO", "title": "Comments", "type": "SDTM Dataset"}, "parentProduct": {"href": "/mdr/sendig/dart-1-1", "title": "Standard for Exchange of Nonclinical Data Implementation Guide: Developmental and Reproductive Toxicology Version 1.1", "type": "Implementation Guide"}, "rootItem": {"href": "/mdr/root/sendig/datasets/CO/variables/IDVAR", "title": "Version-agnostic anchor resource for SENDIG variable CO.IDVAR", "type": "Root Data Element"}, "self": {"href": "/mdr/sendig/dart-1-1/datasets/CO/variables/IDVAR", "title": "Identifying Variable", "type": "SDTM Dataset Variable"}}, "core": "Exp", "description": "Variable in the parent dataset that identifies the record(s) to which the comment applies, which is contained in IDVAR. Examples: BWSEQ or CLGRPID. Used only when individual comments are related to domain records.", "label": "Identifying Variable", "name": "IDVAR", "ordinal": "7", "role": "Record Qualifier", "simpleDatatype": "Char"}, {"_links": {"modelDatasetVariable": {"href": "/mdr/sdtm/1-6/datasets/CO/variables/IDVARVAL", "title": "Identifying Variable Value", "type": "SDTM Dataset Variable"}, "parentDataset": {"href": "/mdr/sendig/dart-1-1/datasets/CO", "title": "Comments", "type": "SDTM Dataset"}, "parentProduct": {"href": "/mdr/sendig/dart-1-1", "title": "Standard for Exchange of Nonclinical Data Implementation Guide: Developmental and Reproductive Toxicology Version 1.1", "type": "Implementation Guide"}, "rootItem": {"href": "/mdr/root/sendig/datasets/CO/variables/IDVARVAL", "title": "Version-agnostic anchor resource for SENDIG variable CO.IDVARVAL", "type": "Root Data Element"}, "self": {"href": "/mdr/sendig/dart-1-1/datasets/CO/variables/IDVARVAL", "title": "Identifying Variable Value", "type": "SDTM Dataset Variable"}}, "core": "Exp", "description": "Value of identifying variable of the parent record(s). Used only when individual comments are related to domain records. Cannot be populated if IDVAR is null.", "label": "Identifying Variable Value", "name": "IDVARVAL", "ordinal": "8", "role": "Record Qualifier", "simpleDatatype": "Char"}, {"_links": {"modelDatasetVariable": {"href": "/mdr/sdtm/1-6/datasets/CO/variables/COREF", "title": "Comment Reference", "type": "SDTM Dataset Variable"}, "parentDataset": {"href": "/mdr/sendig/dart-1-1/datasets/CO", "title": "Comments", "type": "SDTM Dataset"}, "parentProduct": {"href": "/mdr/sendig/dart-1-1", "title": "Standard for Exchange of Nonclinical Data Implementation Guide: Developmental and Reproductive Toxicology Version 1.1", "type": "Implementation Guide"}, "rootItem": {"href": "/mdr/root/sendig/datasets/CO/variables/COREF", "title": "Version-agnostic anchor resource for SENDIG variable CO.COREF", "type": "Root Data Element"}, "self": {"href": "/mdr/sendig/dart-1-1/datasets/CO/variables/COREF", "title": "Comment Reference", "type": "SDTM Dataset Variable"}}, "core": "Perm", "description": "Sponsor-defined reference associated with the comment. May be the logbook page number, name (e.g., Logbook), or a combination of information that identifies the reference (e.g., Logbook, page 650, Day 28, morning).", "label": "Comment Reference", "name": "COREF", "ordinal": "9", "role": "Record Qualifier", "simpleDatatype": "Char"}, {"_links": {"modelDatasetVariable": {"href": "/mdr/sdtm/1-6/datasets/CO/variables/COVAL", "title": "Comment", "type": "SDTM Dataset Variable"}, "parentDataset": {"href": "/mdr/sendig/dart-1-1/datasets/CO", "title": "Comments", "type": "SDTM Dataset"}, "parentProduct": {"href": "/mdr/sendig/dart-1-1", "title": "Standard for Exchange of Nonclinical Data Implementation Guide: Developmental and Reproductive Toxicology Version 1.1", "type": "Implementation Guide"}, "rootItem": {"href": "/mdr/root/sendig/datasets/CO/variables/COVAL", "title": "Version-agnostic anchor resource for SENDIG variable CO.COVAL", "type": "Root Data Element"}, "self": {"href": "/mdr/sendig/dart-1-1/datasets/CO/variables/COVAL", "title": "Comment", "type": "SDTM Dataset Variable"}}, "core": "Req", "description": "The text of the comment. Text over 200 characters can be added to additional columns COVAL1-COVALn. See Assumption 4 in Section 5.2.1.1.", "label": "Comment", "name": "COVAL", "ordinal": "10", "role": "Topic", "simpleDatatype": "Char"}, {"_links": {"modelDatasetVariable": {"href": "/mdr/sdtm/1-6/datasets/CO/variables/COEVAL", "title": "Evaluator", "type": "SDTM Dataset Variable"}, "parentDataset": {"href": "/mdr/sendig/dart-1-1/datasets/CO", "title": "Comments", "type": "SDTM Dataset"}, "parentProduct": {"href": "/mdr/sendig/dart-1-1", "title": "Standard for Exchange of Nonclinical Data Implementation Guide: Developmental and Reproductive Toxicology Version 1.1", "type": "Implementation Guide"}, "rootItem": {"href": "/mdr/root/sendig/datasets/CO/variables/COEVAL", "title": "Version-agnostic anchor resource for SENDIG variable CO.COEVAL", "type": "Root Data Element"}, "self": {"href": "/mdr/sendig/dart-1-1/datasets/CO/variables/COEVAL", "title": "Evaluator", "type": "SDTM Dataset Variable"}}, "core": "Perm", "description": "Used to describe the originator of the comment. Examples: TECHNICIAN, STUDY DIRECTOR, VET.", "label": "Evaluator", "name": "COEVAL", "ordinal": "11", "role": "Record Qualifier", "simpleDatatype": "Char"}, {"_links": {"parentDataset": {"href": "/mdr/sendig/dart-1-1/datasets/CO", "title": "Comments", "type": "SDTM Dataset"}, "parentProduct": {"href": "/mdr/sendig/dart-1-1", "title": "Standard for Exchange of Nonclinical Data Implementation Guide: Developmental and Reproductive Toxicology Version 1.1", "type": "Implementation Guide"}, "rootItem": {"href": "/mdr/root/sendig/datasets/CO/variables/RPHASE", "title": "Version-agnostic anchor resource for SENDIG variable CO.RPHASE", "type": "Root Data Element"}, "self": {"href": "/mdr/sendig/dart-1-1/datasets/CO/variables/RPHASE", "title": "Reproductive Phase", "type": "SDTM Dataset Variable"}}, "core": "Perm", "description": "Name of the Reproductive Phase associated with the date/time of the observation. RPHASE is Required when any Repro Phase timing variable is used.", "label": "Reproductive Phase", "name": "RPHASE", "ordinal": "12", "role": "Timing", "simpleDatatype": "Char"}, {"_links": {"modelDatasetVariable": {"href": "/mdr/sdtm/1-6/datasets/CO/variables/CODTC", "title": "Date/Time of Comment", "type": "SDTM Dataset Variable"}, "parentDataset": {"href": "/mdr/sendig/dart-1-1/datasets/CO", "title": "Comments", "type": "SDTM Dataset"}, "parentProduct": {"href": "/mdr/sendig/dart-1-1", "title": "Standard for Exchange of Nonclinical Data Implementation Guide: Developmental and Reproductive Toxicology Version 1.1", "type": "Implementation Guide"}, "rootItem": {"href": "/mdr/root/sendig/datasets/CO/variables/CODTC", "title": "Version-agnostic anchor resource for SENDIG variable CO.CODTC", "type": "Root Data Element"}, "self": {"href": "/mdr/sendig/dart-1-1/datasets/CO/variables/CODTC", "title": "Date/Time of Comment", "type": "SDTM Dataset Variable"}}, "core": "Exp", "describedValueDomain": "ISO 8601", "description": "Date/Time of the comment, in ISO 8601 format. May be null if this is a child record of another domain or if the comment date was not collected. In all other cases, this represents the date/time of the comment in ISO 8601 format.", "label": "Date/Time of Comment", "name": "CODTC", "ordinal": "13", "role": "Timing", "simpleDatatype": "Char"}, {"_links": {"parentDataset": {"href": "/mdr/sendig/dart-1-1/datasets/CO", "title": "Comments", "type": "SDTM Dataset"}, "parentProduct": {"href": "/mdr/sendig/dart-1-1", "title": "Standard for Exchange of Nonclinical Data Implementation Guide: Developmental and Reproductive Toxicology Version 1.1", "type": "Implementation Guide"}, "rootItem": {"href": "/mdr/root/sendig/datasets/CO/variables/CODY", "title": "Version-agnostic anchor resource for SENDIG variable CO.CODY", "type": "Root Data Element"}, "self": {"href": "/mdr/sendig/dart-1-1/datasets/CO/variables/CODY", "title": "Study Day of Comment", "type": "SDTM Dataset Variable"}}, "core": "Perm", "description": "Study day of the comment, in integer days. May be null if this is a child record of another domain or if the comment date was not collected. The algorithm for calculations must be relative to the sponsor-defined RFSTDTC variable in the Demographics (DM) domain.", "label": "Study Day of Comment", "name": "CODY", "ordinal": "14", "role": "Timing", "simpleDatatype": "Num"}, {"_links": {"parentDataset": {"href": "/mdr/sendig/dart-1-1/datasets/CO", "title": "Comments", "type": "SDTM Dataset"}, "parentProduct": {"href": "/mdr/sendig/dart-1-1", "title": "Standard for Exchange of Nonclinical Data Implementation Guide: Developmental and Reproductive Toxicology Version 1.1", "type": "Implementation Guide"}, "rootItem": {"href": "/mdr/root/sendig/datasets/CO/variables/CORPDY", "title": "Version-agnostic anchor resource for SENDIG variable CO.CORPDY", "type": "Root Data Element"}, "self": {"href": "/mdr/sendig/dart-1-1/datasets/CO/variables/CORPDY", "title": "Actual Repro Phase Day of Observation", "type": "SDTM Dataset Variable"}}, "core": "Perm", "description": "The actual day within the Reproductive Phase on which the observation occurred. Expressed as an integer.", "label": "Actual Repro Phase Day of Observation", "name": "CORPDY", "ordinal": "15", "role": "Timing", "simpleDatatype": "Num"}], "description": "A special-purpose domain that contains comments that may be collected alongside other data. (Source: CDISC Controlled Terminology, SDOMAIN, C49569, 2018-06-29)", "label": "Comments", "name": "CO", "ordinal": "102"}, {"_links": {"modelDataset": {"href": "/mdr/sdtm/1-6/datasets/SE", "title": "Subject Element", "type": "SDTM Dataset"}, "parentClass": {"href": "/mdr/sendig/dart-1-1/classes/SpecialPurpose", "title": "Special-Purpose Datasets", "type": "Class"}, "parentProduct": {"href": "/mdr/sendig/dart-1-1", "title": "Standard for Exchange of Nonclinical Data Implementation Guide: Developmental and Reproductive Toxicology Version 1.1", "type": "Implementation Guide"}, "self": {"href": "/mdr/sendig/dart-1-1/datasets/SE", "title": "Subject Elements", "type": "SDTM Dataset"}}, "datasetStructure": "One record per element experienced per subject", "datasetVariables": [{"_links": {"modelDatasetVariable": {"href": "/mdr/sdtm/1-6/datasets/SE/variables/STUDYID", "title": "Study Identifier", "type": "SDTM Dataset Variable"}, "parentDataset": {"href": "/mdr/sendig/dart-1-1/datasets/SE", "title": "Subject Elements", "type": "SDTM Dataset"}, "parentProduct": {"href": "/mdr/sendig/dart-1-1", "title": "Standard for Exchange of Nonclinical Data Implementation Guide: Developmental and Reproductive Toxicology Version 1.1", "type": "Implementation Guide"}, "rootItem": {"href": "/mdr/root/sendig/datasets/SE/variables/STUDYID", "title": "Version-agnostic anchor resource for SENDIG variable SE.STUDYID", "type": "Root Data Element"}, "self": {"href": "/mdr/sendig/dart-1-1/datasets/SE/variables/STUDYID", "title": "Study Identifier", "type": "SDTM Dataset Variable"}}, "core": "Req", "description": "Unique identifier for a study.", "label": "Study Identifier", "name": "STUDYID", "ordinal": "1", "role": "Identifier", "simpleDatatype": "Char"}, {"_links": {"modelDatasetVariable": {"href": "/mdr/sdtm/1-6/datasets/SE/variables/DOMAIN", "title": "Domain Abbreviation", "type": "SDTM Dataset Variable"}, "parentDataset": {"href": "/mdr/sendig/dart-1-1/datasets/SE", "title": "Subject Elements", "type": "SDTM Dataset"}, "parentProduct": {"href": "/mdr/sendig/dart-1-1", "title": "Standard for Exchange of Nonclinical Data Implementation Guide: Developmental and Reproductive Toxicology Version 1.1", "type": "Implementation Guide"}, "rootItem": {"href": "/mdr/root/sendig/datasets/SE/variables/DOMAIN", "title": "Version-agnostic anchor resource for SENDIG variable SE.DOMAIN", "type": "Root Data Element"}, "self": {"href": "/mdr/sendig/dart-1-1/datasets/SE/variables/DOMAIN", "title": "Domain Abbreviation", "type": "SDTM Dataset Variable"}}, "core": "Req", "description": "Two-character abbreviation for the domain.", "label": "Domain Abbreviation", "name": "DOMAIN", "ordinal": "2", "role": "Identifier", "simpleDatatype": "Char", "valueList": ["SE"]}, {"_links": {"modelDatasetVariable": {"href": "/mdr/sdtm/1-6/datasets/SE/variables/USUBJID", "title": "Unique Subject Identifier", "type": "SDTM Dataset Variable"}, "parentDataset": {"href": "/mdr/sendig/dart-1-1/datasets/SE", "title": "Subject Elements", "type": "SDTM Dataset"}, "parentProduct": {"href": "/mdr/sendig/dart-1-1", "title": "Standard for Exchange of Nonclinical Data Implementation Guide: Developmental and Reproductive Toxicology Version 1.1", "type": "Implementation Guide"}, "rootItem": {"href": "/mdr/root/sendig/datasets/SE/variables/USUBJID", "title": "Version-agnostic anchor resource for SENDIG variable SE.USUBJID", "type": "Root Data Element"}, "self": {"href": "/mdr/sendig/dart-1-1/datasets/SE/variables/USUBJID", "title": "Unique Subject Identifier", "type": "SDTM Dataset Variable"}}, "core": "Req", "description": "Identifier used to uniquely identify a subject across all studies for all applications or submissions involving the product.", "label": "Unique Subject Identifier", "name": "USUBJID", "ordinal": "3", "role": "Identifier", "simpleDatatype": "Char"}, {"_links": {"modelDatasetVariable": {"href": "/mdr/sdtm/1-6/datasets/SE/variables/SESEQ", "title": "Sequence Number", "type": "SDTM Dataset Variable"}, "parentDataset": {"href": "/mdr/sendig/dart-1-1/datasets/SE", "title": "Subject Elements", "type": "SDTM Dataset"}, "parentProduct": {"href": "/mdr/sendig/dart-1-1", "title": "Standard for Exchange of Nonclinical Data Implementation Guide: Developmental and Reproductive Toxicology Version 1.1", "type": "Implementation Guide"}, "rootItem": {"href": "/mdr/root/sendig/datasets/SE/variables/SESEQ", "title": "Version-agnostic anchor resource for SENDIG variable SE.SESEQ", "type": "Root Data Element"}, "self": {"href": "/mdr/sendig/dart-1-1/datasets/SE/variables/SESEQ", "title": "Sequence Number", "type": "SDTM Dataset Variable"}}, "core": "Req", "description": "Sequence number given to ensure uniqueness of subject records within a USUBJID within a domain. May be any valid number.", "label": "Sequence Number", "name": "SESEQ", "ordinal": "4", "role": "Identifier", "simpleDatatype": "Num"}, {"_links": {"modelDatasetVariable": {"href": "/mdr/sdtm/1-6/datasets/SE/variables/ETCD", "title": "Element Code", "type": "SDTM Dataset Variable"}, "parentDataset": {"href": "/mdr/sendig/dart-1-1/datasets/SE", "title": "Subject Elements", "type": "SDTM Dataset"}, "parentProduct": {"href": "/mdr/sendig/dart-1-1", "title": "Standard for Exchange of Nonclinical Data Implementation Guide: Developmental and Reproductive Toxicology Version 1.1", "type": "Implementation Guide"}, "rootItem": {"href": "/mdr/root/sendig/datasets/SE/variables/ETCD", "title": "Version-agnostic anchor resource for SENDIG variable SE.ETCD", "type": "Root Data Element"}, "self": {"href": "/mdr/sendig/dart-1-1/datasets/SE/variables/ETCD", "title": "Element Code", "type": "SDTM Dataset Variable"}}, "core": "Req", "description": "ETCD (the companion to ELEMENT) is limited to 8 characters and does not have special character restrictions.", "label": "Element Code", "name": "ETCD", "ordinal": "5", "role": "Topic", "simpleDatatype": "Char"}, {"_links": {"modelDatasetVariable": {"href": "/mdr/sdtm/1-6/datasets/SE/variables/ELEMENT", "title": "Description of Element", "type": "SDTM Dataset Variable"}, "parentDataset": {"href": "/mdr/sendig/dart-1-1/datasets/SE", "title": "Subject Elements", "type": "SDTM Dataset"}, "parentProduct": {"href": "/mdr/sendig/dart-1-1", "title": "Standard for Exchange of Nonclinical Data Implementation Guide: Developmental and Reproductive Toxicology Version 1.1", "type": "Implementation Guide"}, "rootItem": {"href": "/mdr/root/sendig/datasets/SE/variables/ELEMENT", "title": "Version-agnostic anchor resource for SENDIG variable SE.ELEMENT", "type": "Root Data Element"}, "self": {"href": "/mdr/sendig/dart-1-1/datasets/SE/variables/ELEMENT", "title": "Description of Element", "type": "SDTM Dataset Variable"}}, "core": "Perm", "description": "The name of the Element..", "label": "Description of Element", "name": "ELEMENT", "ordinal": "6", "role": "Synonym Qualifier", "simpleDatatype": "Char"}, {"_links": {"modelDatasetVariable": {"href": "/mdr/sdtm/1-6/datasets/SE/variables/SESTDTC", "title": "Start Date/Time of Element", "type": "SDTM Dataset Variable"}, "parentDataset": {"href": "/mdr/sendig/dart-1-1/datasets/SE", "title": "Subject Elements", "type": "SDTM Dataset"}, "parentProduct": {"href": "/mdr/sendig/dart-1-1", "title": "Standard for Exchange of Nonclinical Data Implementation Guide: Developmental and Reproductive Toxicology Version 1.1", "type": "Implementation Guide"}, "rootItem": {"href": "/mdr/root/sendig/datasets/SE/variables/SESTDTC", "title": "Version-agnostic anchor resource for SENDIG variable SE.SESTDTC", "type": "Root Data Element"}, "self": {"href": "/mdr/sendig/dart-1-1/datasets/SE/variables/SESTDTC", "title": "Start Date/Time of Element", "type": "SDTM Dataset Variable"}}, "core": "Req", "describedValueDomain": "ISO 8601", "description": "Start date/time for an Element for each subject, in ISO 8601 format.", "label": "Start Date/Time of Element", "name": "SESTDTC", "ordinal": "7", "role": "Timing", "simpleDatatype": "Char"}, {"_links": {"modelDatasetVariable": {"href": "/mdr/sdtm/1-6/datasets/SE/variables/SEENDTC", "title": "End Date/Time of Element", "type": "SDTM Dataset Variable"}, "parentDataset": {"href": "/mdr/sendig/dart-1-1/datasets/SE", "title": "Subject Elements", "type": "SDTM Dataset"}, "parentProduct": {"href": "/mdr/sendig/dart-1-1", "title": "Standard for Exchange of Nonclinical Data Implementation Guide: Developmental and Reproductive Toxicology Version 1.1", "type": "Implementation Guide"}, "rootItem": {"href": "/mdr/root/sendig/datasets/SE/variables/SEENDTC", "title": "Version-agnostic anchor resource for SENDIG variable SE.SEENDTC", "type": "Root Data Element"}, "self": {"href": "/mdr/sendig/dart-1-1/datasets/SE/variables/SEENDTC", "title": "End Date/Time of Element", "type": "SDTM Dataset Variable"}}, "core": "Exp", "describedValueDomain": "ISO 8601", "description": "End date/time for an Element for each subject, in ISO 8601 format.", "label": "End Date/Time of Element", "name": "SEENDTC", "ordinal": "8", "role": "Timing", "simpleDatatype": "Char"}, {"_links": {"modelDatasetVariable": {"href": "/mdr/sdtm/1-6/datasets/SE/variables/SEUPDES", "title": "Description of Unplanned Element", "type": "SDTM Dataset Variable"}, "parentDataset": {"href": "/mdr/sendig/dart-1-1/datasets/SE", "title": "Subject Elements", "type": "SDTM Dataset"}, "parentProduct": {"href": "/mdr/sendig/dart-1-1", "title": "Standard for Exchange of Nonclinical Data Implementation Guide: Developmental and Reproductive Toxicology Version 1.1", "type": "Implementation Guide"}, "rootItem": {"href": "/mdr/root/sendig/datasets/SE/variables/SEUPDES", "title": "Version-agnostic anchor resource for SENDIG variable SE.SEUPDES", "type": "Root Data Element"}, "self": {"href": "/mdr/sendig/dart-1-1/datasets/SE/variables/SEUPDES", "title": "Description of Unplanned Element", "type": "SDTM Dataset Variable"}}, "core": "Perm", "description": "Description of what happened to the subject during an unplanned Element. Used only if ETCD has the value of UNPLAN.", "label": "Description of Unplanned Element", "name": "SEUPDES", "ordinal": "9", "role": "Synonym Qualifier", "simpleDatatype": "Char"}], "description": "A special-purpose domain that contains the actual order of elements followed by the subject, together with the start date/time and end date/time for each element. (Source: CDISC Controlled Terminology, SDOMAIN, C49616, 2018-06-29)", "label": "Subject Elements", "name": "SE", "ordinal": "103"}], "description": "This SDTM class contains a set of domains which do not conform to the Findings, Events or Interventions observation classes. The domains included are DM, CO, SE and SV. (Source: CDISC Controlled Terminology, GNRLOBSC, C103377, 2018-06-29)", "label": "Special-Purpose Datasets", "name": "Special-Purpose", "ordinal": "2"}, {"_links": {"modelClass": {"href": "/mdr/sdtm/1-6/classes/Interventions", "title": "Interventions Observation Class", "type": "Class"}, "parentClass": {"href": "/mdr/sendig/dart-1-1/classes/GeneralObservations", "title": "General Observation Class", "type": "Class"}, "parentProduct": {"href": "/mdr/sendig/dart-1-1", "title": "Standard for Exchange of Nonclinical Data Implementation Guide: Developmental and Reproductive Toxicology Version 1.1", "type": "Implementation Guide"}, "self": {"href": "/mdr/sendig/dart-1-1/classes/Interventions", "title": "Interventions Observation Class", "type": "Class"}}, "datasets": [{"_links": {"parentClass": {"href": "/mdr/sendig/dart-1-1/classes/Interventions", "title": "Interventions Observation Class", "type": "Class"}, "parentProduct": {"href": "/mdr/sendig/dart-1-1", "title": "Standard for Exchange of Nonclinical Data Implementation Guide: Developmental and Reproductive Toxicology Version 1.1", "type": "Implementation Guide"}, "self": {"href": "/mdr/sendig/dart-1-1/datasets/EX", "title": "Exposure", "type": "SDTM Dataset"}}, "datasetStructure": "One record per constant dosing interval per treatment per subject or pool", "datasetVariables": [{"_links": {"modelClassVariable": {"href": "/mdr/sdtm/1-6/classes/GeneralObservations/variables/STUDYID", "title": "Study Identifier", "type": "Class Variable"}, "parentDataset": {"href": "/mdr/sendig/dart-1-1/datasets/EX", "title": "Exposure", "type": "SDTM Dataset"}, "parentProduct": {"href": "/mdr/sendig/dart-1-1", "title": "Standard for Exchange of Nonclinical Data Implementation Guide: Developmental and Reproductive Toxicology Version 1.1", "type": "Implementation Guide"}, "rootItem": {"href": "/mdr/root/sendig/datasets/EX/variables/STUDYID", "title": "Version-agnostic anchor resource for SENDIG variable EX.STUDYID", "type": "Root Data Element"}, "self": {"href": "/mdr/sendig/dart-1-1/datasets/EX/variables/STUDYID", "title": "Study Identifier", "type": "SDTM Dataset Variable"}}, "core": "Req", "description": "Unique identifier for a study.", "label": "Study Identifier", "name": "STUDYID", "ordinal": "1", "role": "Identifier", "simpleDatatype": "Char"}, {"_links": {"modelClassVariable": {"href": "/mdr/sdtm/1-6/classes/GeneralObservations/variables/DOMAIN", "title": "Domain Abbreviation", "type": "Class Variable"}, "parentDataset": {"href": "/mdr/sendig/dart-1-1/datasets/EX", "title": "Exposure", "type": "SDTM Dataset"}, "parentProduct": {"href": "/mdr/sendig/dart-1-1", "title": "Standard for Exchange of Nonclinical Data Implementation Guide: Developmental and Reproductive Toxicology Version 1.1", "type": "Implementation Guide"}, "rootItem": {"href": "/mdr/root/sendig/datasets/EX/variables/DOMAIN", "title": "Version-agnostic anchor resource for SENDIG variable EX.DOMAIN", "type": "Root Data Element"}, "self": {"href": "/mdr/sendig/dart-1-1/datasets/EX/variables/DOMAIN", "title": "Domain Abbreviation", "type": "SDTM Dataset Variable"}}, "core": "Req", "description": "Two-character abbreviation for the domain.", "label": "Domain Abbreviation", "name": "DOMAIN", "ordinal": "2", "role": "Identifier", "simpleDatatype": "Char", "valueList": ["EX"]}, {"_links": {"modelClassVariable": {"href": "/mdr/sdtm/1-6/classes/GeneralObservations/variables/USUBJID", "title": "Unique Subject Identifier", "type": "Class Variable"}, "parentDataset": {"href": "/mdr/sendig/dart-1-1/datasets/EX", "title": "Exposure", "type": "SDTM Dataset"}, "parentProduct": {"href": "/mdr/sendig/dart-1-1", "title": "Standard for Exchange of Nonclinical Data Implementation Guide: Developmental and Reproductive Toxicology Version 1.1", "type": "Implementation Guide"}, "rootItem": {"href": "/mdr/root/sendig/datasets/EX/variables/USUBJID", "title": "Version-agnostic anchor resource for SENDIG variable EX.USUBJID", "type": "Root Data Element"}, "self": {"href": "/mdr/sendig/dart-1-1/datasets/EX/variables/USUBJID", "title": "Unique Subject Identifier", "type": "SDTM Dataset Variable"}}, "core": "Exp", "description": "Identifier used to uniquely identify a subject across all studies for all applications or submissions involving the product. Either USUBJID or POOLID must be populated.", "label": "Unique Subject Identifier", "name": "USUBJID", "ordinal": "3", "role": "Identifier", "simpleDatatype": "Char"}, {"_links": {"modelClassVariable": {"href": "/mdr/sdtm/1-6/classes/GeneralObservations/variables/POOLID", "title": "Pool Identifier", "type": "Class Variable"}, "parentDataset": {"href": "/mdr/sendig/dart-1-1/datasets/EX", "title": "Exposure", "type": "SDTM Dataset"}, "parentProduct": {"href": "/mdr/sendig/dart-1-1", "title": "Standard for Exchange of Nonclinical Data Implementation Guide: Developmental and Reproductive Toxicology Version 1.1", "type": "Implementation Guide"}, "rootItem": {"href": "/mdr/root/sendig/datasets/EX/variables/POOLID", "title": "Version-agnostic anchor resource for SENDIG variable EX.POOLID", "type": "Root Data Element"}, "self": {"href": "/mdr/sendig/dart-1-1/datasets/EX/variables/POOLID", "title": "Pool Identifier", "type": "SDTM Dataset Variable"}}, "core": "Perm", "description": "Identifier used for pooling subjects to assign a single finding to multiple subjects. If POOLID is entered, POOLDEF records must exist for each subject and the USUBJID must be null. Either USUBJID or POOLID must be populated.", "label": "Pool Identifier", "name": "POOLID", "ordinal": "4", "role": "Identifier", "simpleDatatype": "Char"}, {"_links": {"modelClassVariable": {"href": "/mdr/sdtm/1-6/classes/GeneralObservations/variables/FOCID", "title": "Focus of Study-Specific Interest", "type": "Class Variable"}, "parentDataset": {"href": "/mdr/sendig/dart-1-1/datasets/EX", "title": "Exposure", "type": "SDTM Dataset"}, "parentProduct": {"href": "/mdr/sendig/dart-1-1", "title": "Standard for Exchange of Nonclinical Data Implementation Guide: Developmental and Reproductive Toxicology Version 1.1", "type": "Implementation Guide"}, "rootItem": {"href": "/mdr/root/sendig/datasets/EX/variables/FOCID", "title": "Version-agnostic anchor resource for SENDIG variable EX.FOCID", "type": "Root Data Element"}, "self": {"href": "/mdr/sendig/dart-1-1/datasets/EX/variables/FOCID", "title": "Focus of Study-Specific Interest", "type": "SDTM Dataset Variable"}}, "core": "Perm", "description": "Identification of a focus of study-specific interest on or within a subject or specimen as defined in the protocol for which a measurement, test, or examination was performed, such as a drug application site, e.g., \"Injection site 1,\" \"Biopsy site 1,\" \"Treated site 1.\" the value in this variable should have inherent semantic value.", "label": "Focus of Study-Specific Interest", "name": "FOCID", "ordinal": "5", "role": "Identifier", "simpleDatatype": "Char"}, {"_links": {"modelClassVariable": {"href": "/mdr/sdtm/1-6/classes/GeneralObservations/variables/--SEQ", "title": "Sequence Number", "type": "Class Variable"}, "parentDataset": {"href": "/mdr/sendig/dart-1-1/datasets/EX", "title": "Exposure", "type": "SDTM Dataset"}, "parentProduct": {"href": "/mdr/sendig/dart-1-1", "title": "Standard for Exchange of Nonclinical Data Implementation Guide: Developmental and Reproductive Toxicology Version 1.1", "type": "Implementation Guide"}, "rootItem": {"href": "/mdr/root/sendig/datasets/EX/variables/EXSEQ", "title": "Version-agnostic anchor resource for SENDIG variable EX.EXSEQ", "type": "Root Data Element"}, "self": {"href": "/mdr/sendig/dart-1-1/datasets/EX/variables/EXSEQ", "title": "Sequence Number", "type": "SDTM Dataset Variable"}}, "core": "Req", "description": "The sequence number must be unique for each record within a USUBJID or POOLID, whichever applies for the record.", "label": "Sequence Number", "name": "EXSEQ", "ordinal": "6", "role": "Identifier", "simpleDatatype": "Num"}, {"_links": {"modelClassVariable": {"href": "/mdr/sdtm/1-6/classes/Interventions/variables/--TRT", "title": "Name of Treatment", "type": "Class Variable"}, "parentDataset": {"href": "/mdr/sendig/dart-1-1/datasets/EX", "title": "Exposure", "type": "SDTM Dataset"}, "parentProduct": {"href": "/mdr/sendig/dart-1-1", "title": "Standard for Exchange of Nonclinical Data Implementation Guide: Developmental and Reproductive Toxicology Version 1.1", "type": "Implementation Guide"}, "rootItem": {"href": "/mdr/root/sendig/datasets/EX/variables/EXTRT", "title": "Version-agnostic anchor resource for SENDIG variable EX.EXTRT", "type": "Root Data Element"}, "self": {"href": "/mdr/sendig/dart-1-1/datasets/EX/variables/EXTRT", "title": "Name of Actual Treatment", "type": "SDTM Dataset Variable"}}, "core": "Req", "description": "Name of the treatment, as defined by the protocol.", "label": "Name of Actual Treatment", "name": "EXTRT", "ordinal": "7", "role": "Topic", "simpleDatatype": "Char"}, {"_links": {"modelClassVariable": {"href": "/mdr/sdtm/1-6/classes/Interventions/variables/--DOSE", "title": "Dose", "type": "Class Variable"}, "parentDataset": {"href": "/mdr/sendig/dart-1-1/datasets/EX", "title": "Exposure", "type": "SDTM Dataset"}, "parentProduct": {"href": "/mdr/sendig/dart-1-1", "title": "Standard for Exchange of Nonclinical Data Implementation Guide: Developmental and Reproductive Toxicology Version 1.1", "type": "Implementation Guide"}, "rootItem": {"href": "/mdr/root/sendig/datasets/EX/variables/EXDOSE", "title": "Version-agnostic anchor resource for SENDIG variable EX.EXDOSE", "type": "Root Data Element"}, "self": {"href": "/mdr/sendig/dart-1-1/datasets/EX/variables/EXDOSE", "title": "Dose per Administration", "type": "SDTM Dataset Variable"}}, "core": "Exp", "description": "Amount of treatment administered.", "label": "Dose per Administration", "name": "EXDOSE", "ordinal": "8", "role": "Record Qualifier", "simpleDatatype": "Num"}, {"_links": {"modelClassVariable": {"href": "/mdr/sdtm/1-6/classes/Interventions/variables/--DOSTXT", "title": "Dose Description", "type": "Class Variable"}, "parentDataset": {"href": "/mdr/sendig/dart-1-1/datasets/EX", "title": "Exposure", "type": "SDTM Dataset"}, "parentProduct": {"href": "/mdr/sendig/dart-1-1", "title": "Standard for Exchange of Nonclinical Data Implementation Guide: Developmental and Reproductive Toxicology Version 1.1", "type": "Implementation Guide"}, "rootItem": {"href": "/mdr/root/sendig/datasets/EX/variables/EXDOSTXT", "title": "Version-agnostic anchor resource for SENDIG variable EX.EXDOSTXT", "type": "Root Data Element"}, "self": {"href": "/mdr/sendig/dart-1-1/datasets/EX/variables/EXDOSTXT", "title": "Dose Description", "type": "SDTM Dataset Variable"}}, "core": "Perm", "description": "If the amount of treatment administered cannot be represented as a number and populated in EXDOSE, this field is used to describe the amount of treatment administered. Example: 200-400.", "label": "Dose Description", "name": "EXDOSTXT", "ordinal": "9", "role": "Record Qualifier", "simpleDatatype": "Char"}, {"_links": {"codelist": [{"href": "/mdr/root/ct/sendct/codelists/C71620", "title": "Version-agnostic anchor resource for codelist C71620", "type": "Root Value Domain"}], "modelClassVariable": {"href": "/mdr/sdtm/1-6/classes/Interventions/variables/--DOSU", "title": "Dose Units", "type": "Class Variable"}, "parentDataset": {"href": "/mdr/sendig/dart-1-1/datasets/EX", "title": "Exposure", "type": "SDTM Dataset"}, "parentProduct": {"href": "/mdr/sendig/dart-1-1", "title": "Standard for Exchange of Nonclinical Data Implementation Guide: Developmental and Reproductive Toxicology Version 1.1", "type": "Implementation Guide"}, "rootItem": {"href": "/mdr/root/sendig/datasets/EX/variables/EXDOSU", "title": "Version-agnostic anchor resource for SENDIG variable EX.EXDOSU", "type": "Root Data Element"}, "self": {"href": "/mdr/sendig/dart-1-1/datasets/EX/variables/EXDOSU", "title": "Dose Units", "type": "SDTM Dataset Variable"}}, "core": "Exp", "description": "Units for EXDOSE or EXDOSTXT. Examples: ng, mg, or mg/kg.", "label": "Dose Units", "name": "EXDOSU", "ordinal": "10", "role": "Variable Qualifier", "simpleDatatype": "Char"}, {"_links": {"codelist": [{"href": "/mdr/root/ct/sendct/codelists/C66726", "title": "Version-agnostic anchor resource for codelist C66726", "type": "Root Value Domain"}], "modelClassVariable": {"href": "/mdr/sdtm/1-6/classes/Interventions/variables/--DOSFRM", "title": "Dose Form", "type": "Class Variable"}, "parentDataset": {"href": "/mdr/sendig/dart-1-1/datasets/EX", "title": "Exposure", "type": "SDTM Dataset"}, "parentProduct": {"href": "/mdr/sendig/dart-1-1", "title": "Standard for Exchange of Nonclinical Data Implementation Guide: Developmental and Reproductive Toxicology Version 1.1", "type": "Implementation Guide"}, "rootItem": {"href": "/mdr/root/sendig/datasets/EX/variables/EXDOSFRM", "title": "Version-agnostic anchor resource for SENDIG variable EX.EXDOSFRM", "type": "Root Data Element"}, "self": {"href": "/mdr/sendig/dart-1-1/datasets/EX/variables/EXDOSFRM", "title": "Dose Form", "type": "SDTM Dataset Variable"}}, "core": "Exp", "description": "Dose form for treatment (form administered). Examples: TABLET, LOTION.", "label": "Dose Form", "name": "EXDOSFRM", "ordinal": "11", "role": "Variable Qualifier", "simpleDatatype": "Char"}, {"_links": {"codelist": [{"href": "/mdr/root/ct/sendct/codelists/C71113", "title": "Version-agnostic anchor resource for codelist C71113", "type": "Root Value Domain"}], "modelClassVariable": {"href": "/mdr/sdtm/1-6/classes/Interventions/variables/--DOSFRQ", "title": "Dosing Frequency per Interval", "type": "Class Variable"}, "parentDataset": {"href": "/mdr/sendig/dart-1-1/datasets/EX", "title": "Exposure", "type": "SDTM Dataset"}, "parentProduct": {"href": "/mdr/sendig/dart-1-1", "title": "Standard for Exchange of Nonclinical Data Implementation Guide: Developmental and Reproductive Toxicology Version 1.1", "type": "Implementation Guide"}, "rootItem": {"href": "/mdr/root/sendig/datasets/EX/variables/EXDOSFRQ", "title": "Version-agnostic anchor resource for SENDIG variable EX.EXDOSFRQ", "type": "Root Data Element"}, "self": {"href": "/mdr/sendig/dart-1-1/datasets/EX/variables/EXDOSFRQ", "title": "Dosing Frequency Per Interval", "type": "SDTM Dataset Variable"}}, "core": "Req", "description": "Usually expressed as the number of repeated administrations of EXDOSE within a specific time period. Examples: QD (once daily), BID (2x daily).", "label": "Dosing Frequency Per Interval", "name": "EXDOSFRQ", "ordinal": "12", "role": "Variable Qualifier", "simpleDatatype": "Char"}, {"_links": {"codelist": [{"href": "/mdr/root/ct/sendct/codelists/C66729", "title": "Version-agnostic anchor resource for codelist C66729", "type": "Root Value Domain"}], "modelClassVariable": {"href": "/mdr/sdtm/1-6/classes/Interventions/variables/--ROUTE", "title": "Route of Administration", "type": "Class Variable"}, "parentDataset": {"href": "/mdr/sendig/dart-1-1/datasets/EX", "title": "Exposure", "type": "SDTM Dataset"}, "parentProduct": {"href": "/mdr/sendig/dart-1-1", "title": "Standard for Exchange of Nonclinical Data Implementation Guide: Developmental and Reproductive Toxicology Version 1.1", "type": "Implementation Guide"}, "rootItem": {"href": "/mdr/root/sendig/datasets/EX/variables/EXROUTE", "title": "Version-agnostic anchor resource for SENDIG variable EX.EXROUTE", "type": "Root Data Element"}, "self": {"href": "/mdr/sendig/dart-1-1/datasets/EX/variables/EXROUTE", "title": "Route of Administration", "type": "SDTM Dataset Variable"}}, "core": "Req", "description": "Route of administration for EXTRT. Examples: ORAL GAVAGE, DERMAL, INTRAVENOUS.", "label": "Route of Administration", "name": "EXROUTE", "ordinal": "13", "role": "Variable Qualifier", "simpleDatatype": "Char"}, {"_links": {"modelClassVariable": {"href": "/mdr/sdtm/1-6/classes/Interventions/variables/--LOT", "title": "Lot Number", "type": "Class Variable"}, "parentDataset": {"href": "/mdr/sendig/dart-1-1/datasets/EX", "title": "Exposure", "type": "SDTM Dataset"}, "parentProduct": {"href": "/mdr/sendig/dart-1-1", "title": "Standard for Exchange of Nonclinical Data Implementation Guide: Developmental and Reproductive Toxicology Version 1.1", "type": "Implementation Guide"}, "rootItem": {"href": "/mdr/root/sendig/datasets/EX/variables/EXLOT", "title": "Version-agnostic anchor resource for SENDIG variable EX.EXLOT", "type": "Root Data Element"}, "self": {"href": "/mdr/sendig/dart-1-1/datasets/EX/variables/EXLOT", "title": "Lot Number", "type": "SDTM Dataset Variable"}}, "core": "Exp", "description": "Lot Number(s) or Batch Number(s) of the EXTRT test article. If mixed lots of the test article are administered during the same constant dosing interval, this should be represented as \"Lot A;Lot B.\" Mixed lots are produced by the mixing of Lots a and B of the test article into one solution, suspension, or dietary food concentration. If no test article was administered, EXLOT should be null.", "label": "Lot Number", "name": "EXLOT", "ordinal": "14", "role": "Record Qualifier", "simpleDatatype": "Char"}, {"_links": {"modelClassVariable": {"href": "/mdr/sdtm/1-6/classes/Interventions/variables/--LOC", "title": "Location of Dose Administration", "type": "Class Variable"}, "parentDataset": {"href": "/mdr/sendig/dart-1-1/datasets/EX", "title": "Exposure", "type": "SDTM Dataset"}, "parentProduct": {"href": "/mdr/sendig/dart-1-1", "title": "Standard for Exchange of Nonclinical Data Implementation Guide: Developmental and Reproductive Toxicology Version 1.1", "type": "Implementation Guide"}, "rootItem": {"href": "/mdr/root/sendig/datasets/EX/variables/EXLOC", "title": "Version-agnostic anchor resource for SENDIG variable EX.EXLOC", "type": "Root Data Element"}, "self": {"href": "/mdr/sendig/dart-1-1/datasets/EX/variables/EXLOC", "title": "Location of Dose Administration", "type": "SDTM Dataset Variable"}}, "core": "Perm", "description": "Specifies anatomical location (site) of administration. Example: LEFT HINDLIMB for a topical application or an injection site number. Each administration will require its own record.", "label": "Location of Dose Administration", "name": "EXLOC", "ordinal": "15", "role": "Record Qualifier", "simpleDatatype": "Char"}, {"_links": {"parentDataset": {"href": "/mdr/sendig/dart-1-1/datasets/EX", "title": "Exposure", "type": "SDTM Dataset"}, "parentProduct": {"href": "/mdr/sendig/dart-1-1", "title": "Standard for Exchange of Nonclinical Data Implementation Guide: Developmental and Reproductive Toxicology Version 1.1", "type": "Implementation Guide"}, "rootItem": {"href": "/mdr/root/sendig/datasets/EX/variables/EXMETHOD", "title": "Version-agnostic anchor resource for SENDIG variable EX.EXMETHOD", "type": "Root Data Element"}, "self": {"href": "/mdr/sendig/dart-1-1/datasets/EX/variables/EXMETHOD", "title": "Method of Administration", "type": "SDTM Dataset Variable"}}, "core": "Perm", "description": "Method of the dose administration. Example: INFUSION.", "label": "Method of Administration", "name": "EXMETHOD", "ordinal": "16", "role": "Record Qualifier", "simpleDatatype": "Char"}, {"_links": {"modelClassVariable": {"href": "/mdr/sdtm/1-6/classes/Interventions/variables/--TRTV", "title": "Treatment Vehicle", "type": "Class Variable"}, "parentDataset": {"href": "/mdr/sendig/dart-1-1/datasets/EX", "title": "Exposure", "type": "SDTM Dataset"}, "parentProduct": {"href": "/mdr/sendig/dart-1-1", "title": "Standard for Exchange of Nonclinical Data Implementation Guide: Developmental and Reproductive Toxicology Version 1.1", "type": "Implementation Guide"}, "rootItem": {"href": "/mdr/root/sendig/datasets/EX/variables/EXTRTV", "title": "Version-agnostic anchor resource for SENDIG variable EX.EXTRTV", "type": "Root Data Element"}, "self": {"href": "/mdr/sendig/dart-1-1/datasets/EX/variables/EXTRTV", "title": "Treatment Vehicle", "type": "SDTM Dataset Variable"}}, "core": "Exp", "description": "Describes vehicle used for treatment. Example: SALINE.", "label": "Treatment Vehicle", "name": "EXTRTV", "ordinal": "17", "role": "Record Qualifier", "simpleDatatype": "Char"}, {"_links": {"modelClassVariable": {"href": "/mdr/sdtm/1-6/classes/Interventions/variables/--VAMT", "title": "Treatment Vehicle Amount", "type": "Class Variable"}, "parentDataset": {"href": "/mdr/sendig/dart-1-1/datasets/EX", "title": "Exposure", "type": "SDTM Dataset"}, "parentProduct": {"href": "/mdr/sendig/dart-1-1", "title": "Standard for Exchange of Nonclinical Data Implementation Guide: Developmental and Reproductive Toxicology Version 1.1", "type": "Implementation Guide"}, "rootItem": {"href": "/mdr/root/sendig/datasets/EX/variables/EXVAMT", "title": "Version-agnostic anchor resource for SENDIG variable EX.EXVAMT", "type": "Root Data Element"}, "self": {"href": "/mdr/sendig/dart-1-1/datasets/EX/variables/EXVAMT", "title": "Amount Administered", "type": "SDTM Dataset Variable"}}, "core": "Perm", "description": "The amount (volume or weight) of the treatment compound plus vehicle administered in a single dose. This is not to be confused with EXDOSE. EXDOSE refers to the amount of test material administered to the subject.", "label": "Amount Administered", "name": "EXVAMT", "ordinal": "18", "role": "Record Qualifier", "simpleDatatype": "Num"}, {"_links": {"codelist": [{"href": "/mdr/root/ct/sendct/codelists/C71620", "title": "Version-agnostic anchor resource for codelist C71620", "type": "Root Value Domain"}], "modelClassVariable": {"href": "/mdr/sdtm/1-6/classes/Interventions/variables/--VAMTU", "title": "Treatment Vehicle Amount Units", "type": "Class Variable"}, "parentDataset": {"href": "/mdr/sendig/dart-1-1/datasets/EX", "title": "Exposure", "type": "SDTM Dataset"}, "parentProduct": {"href": "/mdr/sendig/dart-1-1", "title": "Standard for Exchange of Nonclinical Data Implementation Guide: Developmental and Reproductive Toxicology Version 1.1", "type": "Implementation Guide"}, "rootItem": {"href": "/mdr/root/sendig/datasets/EX/variables/EXVAMTU", "title": "Version-agnostic anchor resource for SENDIG variable EX.EXVAMTU", "type": "Root Data Element"}, "self": {"href": "/mdr/sendig/dart-1-1/datasets/EX/variables/EXVAMTU", "title": "Amount Administered Units", "type": "SDTM Dataset Variable"}}, "core": "Perm", "description": "Units for EXVAMT (per dose administration).", "label": "Amount Administered Units", "name": "EXVAMTU", "ordinal": "19", "role": "Variable Qualifier", "simpleDatatype": "Char"}, {"_links": {"modelClassVariable": {"href": "/mdr/sdtm/1-6/classes/Interventions/variables/--ADJ", "title": "Reason for Dose Adjustment", "type": "Class Variable"}, "parentDataset": {"href": "/mdr/sendig/dart-1-1/datasets/EX", "title": "Exposure", "type": "SDTM Dataset"}, "parentProduct": {"href": "/mdr/sendig/dart-1-1", "title": "Standard for Exchange of Nonclinical Data Implementation Guide: Developmental and Reproductive Toxicology Version 1.1", "type": "Implementation Guide"}, "rootItem": {"href": "/mdr/root/sendig/datasets/EX/variables/EXADJ", "title": "Version-agnostic anchor resource for SENDIG variable EX.EXADJ", "type": "Root Data Element"}, "self": {"href": "/mdr/sendig/dart-1-1/datasets/EX/variables/EXADJ", "title": "Reason for Dose Adjustment", "type": "SDTM Dataset Variable"}}, "core": "Perm", "description": "Describes reason or explanation of why a dose is adjusted - used only when an adjustment is represented in EX. May be used for variations from protocol-specified doses or changes from expected doses (e.g., when dose is adjusted due to toxicity).", "label": "Reason for Dose Adjustment", "name": "EXADJ", "ordinal": "20", "role": "Record Qualifier", "simpleDatatype": "Char"}, {"_links": {"modelClassVariable": {"href": "/mdr/sdtm/1-6/classes/GeneralObservations/variables/RPHASE", "title": "Repro Phase", "type": "Class Variable"}, "parentDataset": {"href": "/mdr/sendig/dart-1-1/datasets/EX", "title": "Exposure", "type": "SDTM Dataset"}, "parentProduct": {"href": "/mdr/sendig/dart-1-1", "title": "Standard for Exchange of Nonclinical Data Implementation Guide: Developmental and Reproductive Toxicology Version 1.1", "type": "Implementation Guide"}, "rootItem": {"href": "/mdr/root/sendig/datasets/EX/variables/RPHASE", "title": "Version-agnostic anchor resource for SENDIG variable EX.RPHASE", "type": "Root Data Element"}, "self": {"href": "/mdr/sendig/dart-1-1/datasets/EX/variables/RPHASE", "title": "Reproductive Phase", "type": "SDTM Dataset Variable"}}, "core": "Exp", "description": "Name of the Reproductive Phase associated with the date/time of the observation. RPHASE is Required when any Repro Phase timing variable is used.", "label": "Reproductive Phase", "name": "RPHASE", "ordinal": "21", "role": "Timing", "simpleDatatype": "Char"}, {"_links": {"modelClassVariable": {"href": "/mdr/sdtm/1-6/classes/GeneralObservations/variables/RPPLSTDY", "title": "Planned Repro Phase Day of Obs Start", "type": "Class Variable"}, "parentDataset": {"href": "/mdr/sendig/dart-1-1/datasets/EX", "title": "Exposure", "type": "SDTM Dataset"}, "parentProduct": {"href": "/mdr/sendig/dart-1-1", "title": "Standard for Exchange of Nonclinical Data Implementation Guide: Developmental and Reproductive Toxicology Version 1.1", "type": "Implementation Guide"}, "rootItem": {"href": "/mdr/root/sendig/datasets/EX/variables/RPPLSTDY", "title": "Version-agnostic anchor resource for SENDIG variable EX.RPPLSTDY", "type": "Root Data Element"}, "self": {"href": "/mdr/sendig/dart-1-1/datasets/EX/variables/RPPLSTDY", "title": "Planned Repro Phase Day of Obs Start", "type": "SDTM Dataset Variable"}}, "core": "Perm", "description": "The planned day within the Reproductive Phase of the start of the observation. Expressed as an integer.", "label": "Planned Repro Phase Day of Obs Start", "name": "RPPLSTDY", "ordinal": "22", "role": "Timing", "simpleDatatype": "Num"}, {"_links": {"modelClassVariable": {"href": "/mdr/sdtm/1-6/classes/GeneralObservations/variables/RPPLENDY", "title": "Planned Repro Phase Day of Obs End", "type": "Class Variable"}, "parentDataset": {"href": "/mdr/sendig/dart-1-1/datasets/EX", "title": "Exposure", "type": "SDTM Dataset"}, "parentProduct": {"href": "/mdr/sendig/dart-1-1", "title": "Standard for Exchange of Nonclinical Data Implementation Guide: Developmental and Reproductive Toxicology Version 1.1", "type": "Implementation Guide"}, "rootItem": {"href": "/mdr/root/sendig/datasets/EX/variables/RPPLENDY", "title": "Version-agnostic anchor resource for SENDIG variable EX.RPPLENDY", "type": "Root Data Element"}, "self": {"href": "/mdr/sendig/dart-1-1/datasets/EX/variables/RPPLENDY", "title": "Planned Repro Phase Day of Obs End", "type": "SDTM Dataset Variable"}}, "core": "Perm", "description": "The planned day within the Reproductive Phase of the end of the observation. Expressed as an integer.", "label": "Planned Repro Phase Day of Obs End", "name": "RPPLENDY", "ordinal": "23", "role": "Timing", "simpleDatatype": "Num"}, {"_links": {"modelClassVariable": {"href": "/mdr/sdtm/1-6/classes/GeneralObservations/variables/--STDTC", "title": "Start Date/Time of Observation", "type": "Class Variable"}, "parentDataset": {"href": "/mdr/sendig/dart-1-1/datasets/EX", "title": "Exposure", "type": "SDTM Dataset"}, "parentProduct": {"href": "/mdr/sendig/dart-1-1", "title": "Standard for Exchange of Nonclinical Data Implementation Guide: Developmental and Reproductive Toxicology Version 1.1", "type": "Implementation Guide"}, "rootItem": {"href": "/mdr/root/sendig/datasets/EX/variables/EXSTDTC", "title": "Version-agnostic anchor resource for SENDIG variable EX.EXSTDTC", "type": "Root Data Element"}, "self": {"href": "/mdr/sendig/dart-1-1/datasets/EX/variables/EXSTDTC", "title": "Start Date/Time of Treatment", "type": "SDTM Dataset Variable"}}, "core": "Exp", "describedValueDomain": "ISO 8601", "description": "Date/Time when administration of the treatment indicated by EXTRT and EXDOSE began, in ISO 8601 format.", "label": "Start Date/Time of Treatment", "name": "EXSTDTC", "ordinal": "24", "role": "Timing", "simpleDatatype": "Char"}, {"_links": {"modelClassVariable": {"href": "/mdr/sdtm/1-6/classes/GeneralObservations/variables/--ENDTC", "title": "End Date/Time of Observation", "type": "Class Variable"}, "parentDataset": {"href": "/mdr/sendig/dart-1-1/datasets/EX", "title": "Exposure", "type": "SDTM Dataset"}, "parentProduct": {"href": "/mdr/sendig/dart-1-1", "title": "Standard for Exchange of Nonclinical Data Implementation Guide: Developmental and Reproductive Toxicology Version 1.1", "type": "Implementation Guide"}, "rootItem": {"href": "/mdr/root/sendig/datasets/EX/variables/EXENDTC", "title": "Version-agnostic anchor resource for SENDIG variable EX.EXENDTC", "type": "Root Data Element"}, "self": {"href": "/mdr/sendig/dart-1-1/datasets/EX/variables/EXENDTC", "title": "End Date/Time of Treatment", "type": "SDTM Dataset Variable"}}, "core": "Perm", "describedValueDomain": "ISO 8601", "description": "Date/Time when administration of the treatment indicated by EXTRT and EXDOSE ended, in ISO 8601 format.", "label": "End Date/Time of Treatment", "name": "EXENDTC", "ordinal": "25", "role": "Timing", "simpleDatatype": "Char"}, {"_links": {"modelClassVariable": {"href": "/mdr/sdtm/1-6/classes/GeneralObservations/variables/--STDY", "title": "Study Day of Start of Observation", "type": "Class Variable"}, "parentDataset": {"href": "/mdr/sendig/dart-1-1/datasets/EX", "title": "Exposure", "type": "SDTM Dataset"}, "parentProduct": {"href": "/mdr/sendig/dart-1-1", "title": "Standard for Exchange of Nonclinical Data Implementation Guide: Developmental and Reproductive Toxicology Version 1.1", "type": "Implementation Guide"}, "rootItem": {"href": "/mdr/root/sendig/datasets/EX/variables/EXSTDY", "title": "Version-agnostic anchor resource for SENDIG variable EX.EXSTDY", "type": "Root Data Element"}, "self": {"href": "/mdr/sendig/dart-1-1/datasets/EX/variables/EXSTDY", "title": "Study Day of Start of Treatment", "type": "SDTM Dataset Variable"}}, "core": "Perm", "description": "Study day when administration of the treatment began, in integer days. The algorithm for calculations must be relative to the sponsor-defined RFSTDTC variable in the Demographics (DM) domain.", "label": "Study Day of Start of Treatment", "name": "EXSTDY", "ordinal": "26", "role": "Timing", "simpleDatatype": "Num"}, {"_links": {"modelClassVariable": {"href": "/mdr/sdtm/1-6/classes/GeneralObservations/variables/--ENDY", "title": "Study Day of End of Observation", "type": "Class Variable"}, "parentDataset": {"href": "/mdr/sendig/dart-1-1/datasets/EX", "title": "Exposure", "type": "SDTM Dataset"}, "parentProduct": {"href": "/mdr/sendig/dart-1-1", "title": "Standard for Exchange of Nonclinical Data Implementation Guide: Developmental and Reproductive Toxicology Version 1.1", "type": "Implementation Guide"}, "rootItem": {"href": "/mdr/root/sendig/datasets/EX/variables/EXENDY", "title": "Version-agnostic anchor resource for SENDIG variable EX.EXENDY", "type": "Root Data Element"}, "self": {"href": "/mdr/sendig/dart-1-1/datasets/EX/variables/EXENDY", "title": "Study Day of End of Treatment", "type": "SDTM Dataset Variable"}}, "core": "Perm", "description": "Study day when administration of the treatment ended, in integer days. The algorithm for calculations must be relative to the sponsor-defined RFSTDTC variable in the Demographics (DM) domain.", "label": "Study Day of End of Treatment", "name": "EXENDY", "ordinal": "27", "role": "Timing", "simpleDatatype": "Num"}, {"_links": {"modelClassVariable": {"href": "/mdr/sdtm/1-6/classes/GeneralObservations/variables/--RPSTDY", "title": "Actual Repro Phase Day of Obs Start", "type": "Class Variable"}, "parentDataset": {"href": "/mdr/sendig/dart-1-1/datasets/EX", "title": "Exposure", "type": "SDTM Dataset"}, "parentProduct": {"href": "/mdr/sendig/dart-1-1", "title": "Standard for Exchange of Nonclinical Data Implementation Guide: Developmental and Reproductive Toxicology Version 1.1", "type": "Implementation Guide"}, "rootItem": {"href": "/mdr/root/sendig/datasets/EX/variables/EXRPSTDY", "title": "Version-agnostic anchor resource for SENDIG variable EX.EXRPSTDY", "type": "Root Data Element"}, "self": {"href": "/mdr/sendig/dart-1-1/datasets/EX/variables/EXRPSTDY", "title": "Actual Repro Phase Day of Obs Start", "type": "SDTM Dataset Variable"}}, "core": "Exp", "description": "The actual day within the Reproductive Phase of the start of the observation. Expressed as an integer.", "label": "Actual Repro Phase Day of Obs Start", "name": "EXRPSTDY", "ordinal": "28", "role": "Timing", "simpleDatatype": "Num"}, {"_links": {"modelClassVariable": {"href": "/mdr/sdtm/1-6/classes/GeneralObservations/variables/--RPENDY", "title": "Actual Repro Phase Day of Obs End", "type": "Class Variable"}, "parentDataset": {"href": "/mdr/sendig/dart-1-1/datasets/EX", "title": "Exposure", "type": "SDTM Dataset"}, "parentProduct": {"href": "/mdr/sendig/dart-1-1", "title": "Standard for Exchange of Nonclinical Data Implementation Guide: Developmental and Reproductive Toxicology Version 1.1", "type": "Implementation Guide"}, "rootItem": {"href": "/mdr/root/sendig/datasets/EX/variables/EXRPENDY", "title": "Version-agnostic anchor resource for SENDIG variable EX.EXRPENDY", "type": "Root Data Element"}, "self": {"href": "/mdr/sendig/dart-1-1/datasets/EX/variables/EXRPENDY", "title": "Actual Repro Phase Day of Obs End", "type": "SDTM Dataset Variable"}}, "core": "Perm", "description": "The actual day within the Reproductive Phase of the end of the observation. Expressed as an integer.", "label": "Actual Repro Phase Day of Obs End", "name": "EXRPENDY", "ordinal": "29", "role": "Timing", "simpleDatatype": "Num"}, {"_links": {"modelClassVariable": {"href": "/mdr/sdtm/1-6/classes/GeneralObservations/variables/--DUR", "title": "Duration", "type": "Class Variable"}, "parentDataset": {"href": "/mdr/sendig/dart-1-1/datasets/EX", "title": "Exposure", "type": "SDTM Dataset"}, "parentProduct": {"href": "/mdr/sendig/dart-1-1", "title": "Standard for Exchange of Nonclinical Data Implementation Guide: Developmental and Reproductive Toxicology Version 1.1", "type": "Implementation Guide"}, "rootItem": {"href": "/mdr/root/sendig/datasets/EX/variables/EXDUR", "title": "Version-agnostic anchor resource for SENDIG variable EX.EXDUR", "type": "Root Data Element"}, "self": {"href": "/mdr/sendig/dart-1-1/datasets/EX/variables/EXDUR", "title": "Duration of Treatment", "type": "SDTM Dataset Variable"}}, "core": "Perm", "describedValueDomain": "ISO 8601", "description": "Duration and unit of time for a continuous treatment. This may be used to denote the length of an infusion (e.g., PT10M to indicate 10 minutes).", "label": "Duration of Treatment", "name": "EXDUR", "ordinal": "30", "role": "Timing", "simpleDatatype": "Char"}, {"_links": {"modelClassVariable": {"href": "/mdr/sdtm/1-6/classes/GeneralObservations/variables/--TPT", "title": "Planned Time Point Name", "type": "Class Variable"}, "parentDataset": {"href": "/mdr/sendig/dart-1-1/datasets/EX", "title": "Exposure", "type": "SDTM Dataset"}, "parentProduct": {"href": "/mdr/sendig/dart-1-1", "title": "Standard for Exchange of Nonclinical Data Implementation Guide: Developmental and Reproductive Toxicology Version 1.1", "type": "Implementation Guide"}, "rootItem": {"href": "/mdr/root/sendig/datasets/EX/variables/EXTPT", "title": "Version-agnostic anchor resource for SENDIG variable EX.EXTPT", "type": "Root Data Element"}, "self": {"href": "/mdr/sendig/dart-1-1/datasets/EX/variables/EXTPT", "title": "Planned Time Point Name", "type": "SDTM Dataset Variable"}}, "core": "Perm", "description": "Text description of time when a dose should be given. Note: This may be represented as an elapsed time relative to a fixed reference point, such as time of last dose. See EXTPTNUM and EXTPTREF.", "label": "Planned Time Point Name", "name": "EXTPT", "ordinal": "31", "role": "Timing", "simpleDatatype": "Char"}, {"_links": {"modelClassVariable": {"href": "/mdr/sdtm/1-6/classes/GeneralObservations/variables/--TPTNUM", "title": "Planned Time Point Number", "type": "Class Variable"}, "parentDataset": {"href": "/mdr/sendig/dart-1-1/datasets/EX", "title": "Exposure", "type": "SDTM Dataset"}, "parentProduct": {"href": "/mdr/sendig/dart-1-1", "title": "Standard for Exchange of Nonclinical Data Implementation Guide: Developmental and Reproductive Toxicology Version 1.1", "type": "Implementation Guide"}, "rootItem": {"href": "/mdr/root/sendig/datasets/EX/variables/EXTPTNUM", "title": "Version-agnostic anchor resource for SENDIG variable EX.EXTPTNUM", "type": "Root Data Element"}, "self": {"href": "/mdr/sendig/dart-1-1/datasets/EX/variables/EXTPTNUM", "title": "Planned Time Point Number", "type": "SDTM Dataset Variable"}}, "core": "Perm", "description": "Numerical version of EXTPT to aid in sorting.", "label": "Planned Time Point Number", "name": "EXTPTNUM", "ordinal": "32", "role": "Timing", "simpleDatatype": "Num"}, {"_links": {"modelClassVariable": {"href": "/mdr/sdtm/1-6/classes/GeneralObservations/variables/--ELTM", "title": "Planned Elapsed Time from Time Point Ref", "type": "Class Variable"}, "parentDataset": {"href": "/mdr/sendig/dart-1-1/datasets/EX", "title": "Exposure", "type": "SDTM Dataset"}, "parentProduct": {"href": "/mdr/sendig/dart-1-1", "title": "Standard for Exchange of Nonclinical Data Implementation Guide: Developmental and Reproductive Toxicology Version 1.1", "type": "Implementation Guide"}, "rootItem": {"href": "/mdr/root/sendig/datasets/EX/variables/EXELTM", "title": "Version-agnostic anchor resource for SENDIG variable EX.EXELTM", "type": "Root Data Element"}, "self": {"href": "/mdr/sendig/dart-1-1/datasets/EX/variables/EXELTM", "title": "Planned Elapsed Time from Time Point Ref", "type": "SDTM Dataset Variable"}}, "core": "Perm", "describedValueDomain": "ISO 8601", "description": "Planned elapsed time (in ISO 8601 format) relative to the planned fixed reference (EXTPTREF). This variable is useful where there are repetitive measures. Not a clock time or a date time variable. Represented as an ISO 8601 duration. Examples: \"- PT15M\" to represent the period of 15 minutes prior to the reference point indicated by EXTPTREF, or \"PT8H\" to represent the period of 8 hours after the reference point indicated by EXTPTREF.", "label": "Planned Elapsed Time from Time Point Ref", "name": "EXELTM", "ordinal": "33", "role": "Timing", "simpleDatatype": "Char"}, {"_links": {"modelClassVariable": {"href": "/mdr/sdtm/1-6/classes/GeneralObservations/variables/--TPTREF", "title": "Time Point Reference", "type": "Class Variable"}, "parentDataset": {"href": "/mdr/sendig/dart-1-1/datasets/EX", "title": "Exposure", "type": "SDTM Dataset"}, "parentProduct": {"href": "/mdr/sendig/dart-1-1", "title": "Standard for Exchange of Nonclinical Data Implementation Guide: Developmental and Reproductive Toxicology Version 1.1", "type": "Implementation Guide"}, "rootItem": {"href": "/mdr/root/sendig/datasets/EX/variables/EXTPTREF", "title": "Version-agnostic anchor resource for SENDIG variable EX.EXTPTREF", "type": "Root Data Element"}, "self": {"href": "/mdr/sendig/dart-1-1/datasets/EX/variables/EXTPTREF", "title": "Time Point Reference", "type": "SDTM Dataset Variable"}}, "core": "Perm", "description": "Name of the fixed reference point referred to by EXELTM, if used for EXTPTNUM, and EXTPT. It is recommended that EXTPTREF be as descriptive as possible so the reference time point can be inferred without looking at other variables. Examples: Previous dose, previous feed.", "label": "Time Point Reference", "name": "EXTPTREF", "ordinal": "34", "role": "Timing", "simpleDatatype": "Char"}, {"_links": {"modelClassVariable": {"href": "/mdr/sdtm/1-6/classes/GeneralObservations/variables/--RFTDTC", "title": "Date/Time of Reference Time Point", "type": "Class Variable"}, "parentDataset": {"href": "/mdr/sendig/dart-1-1/datasets/EX", "title": "Exposure", "type": "SDTM Dataset"}, "parentProduct": {"href": "/mdr/sendig/dart-1-1", "title": "Standard for Exchange of Nonclinical Data Implementation Guide: Developmental and Reproductive Toxicology Version 1.1", "type": "Implementation Guide"}, "rootItem": {"href": "/mdr/root/sendig/datasets/EX/variables/EXRFTDTC", "title": "Version-agnostic anchor resource for SENDIG variable EX.EXRFTDTC", "type": "Root Data Element"}, "self": {"href": "/mdr/sendig/dart-1-1/datasets/EX/variables/EXRFTDTC", "title": "Date/Time of Reference Time Point", "type": "SDTM Dataset Variable"}}, "core": "Perm", "describedValueDomain": "ISO 8601", "description": "Date/Time of the reference time point, EXTPTREF.", "label": "Date/Time of Reference Time Point", "name": "EXRFTDTC", "ordinal": "35", "role": "Timing", "simpleDatatype": "Char"}], "description": "An interventions domain that contains the details of a subject's exposure to protocol-specified study treatment. Study treatment may be any intervention that is prospectively defined as a test material within a study, and is typically but not always supplied to the subject. (Source: CDISC Controlled Terminology, SDOMAIN, C49587, 2018-06-29)", "label": "Exposure", "name": "EX", "ordinal": "104"}], "description": "This SDTM class captures investigational, therapeutic and other treatments that are administered to the subject (with some actual or expected physiological effect) either as specified by the study protocol (e.g., exposure to study drug), coincident with the study assessment period (e.g., concomitant medications), or self-administered by the subject (such as use of alcohol, tobacco, or caffeine). (Source: CDISC Controlled Terminology, GNRLOBSC, C103374, 2018-06-29)", "label": "Interventions Observation Class", "name": "Interventions", "ordinal": "3"}, {"_links": {"modelClass": {"href": "/mdr/sdtm/1-6/classes/Events", "title": "Events Observation Class", "type": "Class"}, "parentClass": {"href": "/mdr/sendig/dart-1-1/classes/GeneralObservations", "title": "General Observation Class", "type": "Class"}, "parentProduct": {"href": "/mdr/sendig/dart-1-1", "title": "Standard for Exchange of Nonclinical Data Implementation Guide: Developmental and Reproductive Toxicology Version 1.1", "type": "Implementation Guide"}, "self": {"href": "/mdr/sendig/dart-1-1/classes/Events", "title": "Events Observation Class", "type": "Class"}}, "datasets": [{"_links": {"parentClass": {"href": "/mdr/sendig/dart-1-1/classes/Events", "title": "Events Observation Class", "type": "Class"}, "parentProduct": {"href": "/mdr/sendig/dart-1-1", "title": "Standard for Exchange of Nonclinical Data Implementation Guide: Developmental and Reproductive Toxicology Version 1.1", "type": "Implementation Guide"}, "self": {"href": "/mdr/sendig/dart-1-1/datasets/DS", "title": "Disposition", "type": "SDTM Dataset"}}, "datasetStructure": "One record per subject", "datasetVariables": [{"_links": {"modelClassVariable": {"href": "/mdr/sdtm/1-6/classes/GeneralObservations/variables/STUDYID", "title": "Study Identifier", "type": "Class Variable"}, "parentDataset": {"href": "/mdr/sendig/dart-1-1/datasets/DS", "title": "Disposition", "type": "SDTM Dataset"}, "parentProduct": {"href": "/mdr/sendig/dart-1-1", "title": "Standard for Exchange of Nonclinical Data Implementation Guide: Developmental and Reproductive Toxicology Version 1.1", "type": "Implementation Guide"}, "rootItem": {"href": "/mdr/root/sendig/datasets/DS/variables/STUDYID", "title": "Version-agnostic anchor resource for SENDIG variable DS.STUDYID", "type": "Root Data Element"}, "self": {"href": "/mdr/sendig/dart-1-1/datasets/DS/variables/STUDYID", "title": "Study Identifier", "type": "SDTM Dataset Variable"}}, "core": "Req", "description": "Unique identifier for a study.", "label": "Study Identifier", "name": "STUDYID", "ordinal": "1", "role": "Identifier", "simpleDatatype": "Char"}, {"_links": {"modelClassVariable": {"href": "/mdr/sdtm/1-6/classes/GeneralObservations/variables/DOMAIN", "title": "Domain Abbreviation", "type": "Class Variable"}, "parentDataset": {"href": "/mdr/sendig/dart-1-1/datasets/DS", "title": "Disposition", "type": "SDTM Dataset"}, "parentProduct": {"href": "/mdr/sendig/dart-1-1", "title": "Standard for Exchange of Nonclinical Data Implementation Guide: Developmental and Reproductive Toxicology Version 1.1", "type": "Implementation Guide"}, "rootItem": {"href": "/mdr/root/sendig/datasets/DS/variables/DOMAIN", "title": "Version-agnostic anchor resource for SENDIG variable DS.DOMAIN", "type": "Root Data Element"}, "self": {"href": "/mdr/sendig/dart-1-1/datasets/DS/variables/DOMAIN", "title": "Domain Abbreviation", "type": "SDTM Dataset Variable"}}, "core": "Req", "description": "Two-character abbreviation for the domain.", "label": "Domain Abbreviation", "name": "DOMAIN", "ordinal": "2", "role": "Identifier", "simpleDatatype": "Char", "valueList": ["DS"]}, {"_links": {"modelClassVariable": {"href": "/mdr/sdtm/1-6/classes/GeneralObservations/variables/USUBJID", "title": "Unique Subject Identifier", "type": "Class Variable"}, "parentDataset": {"href": "/mdr/sendig/dart-1-1/datasets/DS", "title": "Disposition", "type": "SDTM Dataset"}, "parentProduct": {"href": "/mdr/sendig/dart-1-1", "title": "Standard for Exchange of Nonclinical Data Implementation Guide: Developmental and Reproductive Toxicology Version 1.1", "type": "Implementation Guide"}, "rootItem": {"href": "/mdr/root/sendig/datasets/DS/variables/USUBJID", "title": "Version-agnostic anchor resource for SENDIG variable DS.USUBJID", "type": "Root Data Element"}, "self": {"href": "/mdr/sendig/dart-1-1/datasets/DS/variables/USUBJID", "title": "Unique Subject Identifier", "type": "SDTM Dataset Variable"}}, "core": "Req", "description": "Identifier used to uniquely identify a subject across all studies for all applications or submissions involving the product.", "label": "Unique Subject Identifier", "name": "USUBJID", "ordinal": "3", "role": "Identifier", "simpleDatatype": "Char"}, {"_links": {"modelClassVariable": {"href": "/mdr/sdtm/1-6/classes/GeneralObservations/variables/--SEQ", "title": "Sequence Number", "type": "Class Variable"}, "parentDataset": {"href": "/mdr/sendig/dart-1-1/datasets/DS", "title": "Disposition", "type": "SDTM Dataset"}, "parentProduct": {"href": "/mdr/sendig/dart-1-1", "title": "Standard for Exchange of Nonclinical Data Implementation Guide: Developmental and Reproductive Toxicology Version 1.1", "type": "Implementation Guide"}, "rootItem": {"href": "/mdr/root/sendig/datasets/DS/variables/DSSEQ", "title": "Version-agnostic anchor resource for SENDIG variable DS.DSSEQ", "type": "Root Data Element"}, "self": {"href": "/mdr/sendig/dart-1-1/datasets/DS/variables/DSSEQ", "title": "Sequence Number", "type": "SDTM Dataset Variable"}}, "core": "Req", "description": "Sequence number given to ensure uniqueness of subject records within a domain. May be any valid number.", "label": "Sequence Number", "name": "DSSEQ", "ordinal": "4", "role": "Identifier", "simpleDatatype": "Num"}, {"_links": {"modelClassVariable": {"href": "/mdr/sdtm/1-6/classes/Events/variables/--TERM", "title": "Reported Term", "type": "Class Variable"}, "parentDataset": {"href": "/mdr/sendig/dart-1-1/datasets/DS", "title": "Disposition", "type": "SDTM Dataset"}, "parentProduct": {"href": "/mdr/sendig/dart-1-1", "title": "Standard for Exchange of Nonclinical Data Implementation Guide: Developmental and Reproductive Toxicology Version 1.1", "type": "Implementation Guide"}, "rootItem": {"href": "/mdr/root/sendig/datasets/DS/variables/DSTERM", "title": "Version-agnostic anchor resource for SENDIG variable DS.DSTERM", "type": "Root Data Element"}, "self": {"href": "/mdr/sendig/dart-1-1/datasets/DS/variables/DSTERM", "title": "Reported Term for the Disposition Event", "type": "SDTM Dataset Variable"}}, "core": "Req", "description": "DSTERM is the original term recorded for subject disposition. DSTERM is not under controlled terminology, but should be mapped to DSDECOD.", "label": "Reported Term for the Disposition Event", "name": "DSTERM", "ordinal": "5", "role": "Topic", "simpleDatatype": "Char"}, {"_links": {"codelist": [{"href": "/mdr/root/ct/sendct/codelists/C89968", "title": "Version-agnostic anchor resource for codelist C89968", "type": "Root Value Domain"}], "modelClassVariable": {"href": "/mdr/sdtm/1-6/classes/Events/variables/--DECOD", "title": "Dictionary-Derived Term", "type": "Class Variable"}, "parentDataset": {"href": "/mdr/sendig/dart-1-1/datasets/DS", "title": "Disposition", "type": "SDTM Dataset"}, "parentProduct": {"href": "/mdr/sendig/dart-1-1", "title": "Standard for Exchange of Nonclinical Data Implementation Guide: Developmental and Reproductive Toxicology Version 1.1", "type": "Implementation Guide"}, "rootItem": {"href": "/mdr/root/sendig/datasets/DS/variables/DSDECOD", "title": "Version-agnostic anchor resource for SENDIG variable DS.DSDECOD", "type": "Root Data Element"}, "self": {"href": "/mdr/sendig/dart-1-1/datasets/DS/variables/DSDECOD", "title": "Standardized Disposition Term", "type": "SDTM Dataset Variable"}}, "core": "Req", "description": "Contains the result in a standard format.", "label": "Standardized Disposition Term", "name": "DSDECOD", "ordinal": "6", "role": "Synonym Qualifier", "simpleDatatype": "Char"}, {"_links": {"codelist": [{"href": "/mdr/root/ct/sendct/codelists/C66742", "title": "Version-agnostic anchor resource for codelist C66742", "type": "Root Value Domain"}], "modelClassVariable": {"href": "/mdr/sdtm/1-6/classes/Events/variables/--USCHFL", "title": "Unscheduled Flag", "type": "Class Variable"}, "parentDataset": {"href": "/mdr/sendig/dart-1-1/datasets/DS", "title": "Disposition", "type": "SDTM Dataset"}, "parentProduct": {"href": "/mdr/sendig/dart-1-1", "title": "Standard for Exchange of Nonclinical Data Implementation Guide: Developmental and Reproductive Toxicology Version 1.1", "type": "Implementation Guide"}, "rootItem": {"href": "/mdr/root/sendig/datasets/DS/variables/DSUSCHFL", "title": "Version-agnostic anchor resource for SENDIG variable DS.DSUSCHFL", "type": "Root Data Element"}, "self": {"href": "/mdr/sendig/dart-1-1/datasets/DS/variables/DSUSCHFL", "title": "Unscheduled Flag", "type": "SDTM Dataset Variable"}}, "core": "Exp", "description": "Indicates whether the subject's disposition was unscheduled. If the subject's disposition was based upon a schedule defined in the protocol, this flag should be null. Expected values are Y or null.", "label": "Unscheduled Flag", "name": "DSUSCHFL", "ordinal": "7", "role": "Record Qualifier", "simpleDatatype": "Char"}, {"_links": {"modelClassVariable": {"href": "/mdr/sdtm/1-6/classes/GeneralObservations/variables/VISITDY", "title": "Planned Study Day of Visit", "type": "Class Variable"}, "parentDataset": {"href": "/mdr/sendig/dart-1-1/datasets/DS", "title": "Disposition", "type": "SDTM Dataset"}, "parentProduct": {"href": "/mdr/sendig/dart-1-1", "title": "Standard for Exchange of Nonclinical Data Implementation Guide: Developmental and Reproductive Toxicology Version 1.1", "type": "Implementation Guide"}, "rootItem": {"href": "/mdr/root/sendig/datasets/DS/variables/VISITDY", "title": "Version-agnostic anchor resource for SENDIG variable DS.VISITDY", "type": "Root Data Element"}, "self": {"href": "/mdr/sendig/dart-1-1/datasets/DS/variables/VISITDY", "title": "Planned Study Day of Disposition", "type": "SDTM Dataset Variable"}}, "core": "Perm", "description": "Planned study day of collection. Should be an integer. VISITDY should be populated only when DSTERM represents a scheduled activity.", "label": "Planned Study Day of Disposition", "name": "VISITDY", "ordinal": "8", "role": "Timing", "simpleDatatype": "Num"}, {"_links": {"modelClassVariable": {"href": "/mdr/sdtm/1-6/classes/GeneralObservations/variables/RPHASE", "title": "Repro Phase", "type": "Class Variable"}, "parentDataset": {"href": "/mdr/sendig/dart-1-1/datasets/DS", "title": "Disposition", "type": "SDTM Dataset"}, "parentProduct": {"href": "/mdr/sendig/dart-1-1", "title": "Standard for Exchange of Nonclinical Data Implementation Guide: Developmental and Reproductive Toxicology Version 1.1", "type": "Implementation Guide"}, "rootItem": {"href": "/mdr/root/sendig/datasets/DS/variables/RPHASE", "title": "Version-agnostic anchor resource for SENDIG variable DS.RPHASE", "type": "Root Data Element"}, "self": {"href": "/mdr/sendig/dart-1-1/datasets/DS/variables/RPHASE", "title": "Reproductive Phase", "type": "SDTM Dataset Variable"}}, "core": "Exp", "description": "Name of the Reproductive Phase associated with the date/time of the observation. RPHASE is Required when any Repro Phase timing variable is used.", "label": "Reproductive Phase", "name": "RPHASE", "ordinal": "9", "role": "Timing", "simpleDatatype": "Char"}, {"_links": {"modelClassVariable": {"href": "/mdr/sdtm/1-6/classes/GeneralObservations/variables/RPPLSTDY", "title": "Planned Repro Phase Day of Obs Start", "type": "Class Variable"}, "parentDataset": {"href": "/mdr/sendig/dart-1-1/datasets/DS", "title": "Disposition", "type": "SDTM Dataset"}, "parentProduct": {"href": "/mdr/sendig/dart-1-1", "title": "Standard for Exchange of Nonclinical Data Implementation Guide: Developmental and Reproductive Toxicology Version 1.1", "type": "Implementation Guide"}, "rootItem": {"href": "/mdr/root/sendig/datasets/DS/variables/RPPLSTDY", "title": "Version-agnostic anchor resource for SENDIG variable DS.RPPLSTDY", "type": "Root Data Element"}, "self": {"href": "/mdr/sendig/dart-1-1/datasets/DS/variables/RPPLSTDY", "title": "Planned Repro Phase Day of Obs Start", "type": "SDTM Dataset Variable"}}, "core": "Perm", "description": "The planned day within the Reproductive Phase of the start of the observation. Expressed as an integer.", "label": "Planned Repro Phase Day of Obs Start", "name": "RPPLSTDY", "ordinal": "10", "role": "Timing", "simpleDatatype": "Num"}, {"_links": {"modelClassVariable": {"href": "/mdr/sdtm/1-6/classes/GeneralObservations/variables/--STDTC", "title": "Start Date/Time of Observation", "type": "Class Variable"}, "parentDataset": {"href": "/mdr/sendig/dart-1-1/datasets/DS", "title": "Disposition", "type": "SDTM Dataset"}, "parentProduct": {"href": "/mdr/sendig/dart-1-1", "title": "Standard for Exchange of Nonclinical Data Implementation Guide: Developmental and Reproductive Toxicology Version 1.1", "type": "Implementation Guide"}, "rootItem": {"href": "/mdr/root/sendig/datasets/DS/variables/DSSTDTC", "title": "Version-agnostic anchor resource for SENDIG variable DS.DSSTDTC", "type": "Root Data Element"}, "self": {"href": "/mdr/sendig/dart-1-1/datasets/DS/variables/DSSTDTC", "title": "Date/Time of Disposition", "type": "SDTM Dataset Variable"}}, "core": "Req", "describedValueDomain": "ISO 8601", "description": "Date/Time of the disposition event, in ISO 8601 format.", "label": "Date/Time of Disposition", "name": "DSSTDTC", "ordinal": "11", "role": "Timing", "simpleDatatype": "Char"}, {"_links": {"modelClassVariable": {"href": "/mdr/sdtm/1-6/classes/GeneralObservations/variables/--STDY", "title": "Study Day of Start of Observation", "type": "Class Variable"}, "parentDataset": {"href": "/mdr/sendig/dart-1-1/datasets/DS", "title": "Disposition", "type": "SDTM Dataset"}, "parentProduct": {"href": "/mdr/sendig/dart-1-1", "title": "Standard for Exchange of Nonclinical Data Implementation Guide: Developmental and Reproductive Toxicology Version 1.1", "type": "Implementation Guide"}, "rootItem": {"href": "/mdr/root/sendig/datasets/DS/variables/DSSTDY", "title": "Version-agnostic anchor resource for SENDIG variable DS.DSSTDY", "type": "Root Data Element"}, "self": {"href": "/mdr/sendig/dart-1-1/datasets/DS/variables/DSSTDY", "title": "Study Day of Disposition", "type": "SDTM Dataset Variable"}}, "core": "Perm", "description": "Study day of the disposition event, in integer days. The algorithm for calculations must be relative to the sponsor-defined RFSTDTC variable in the Demographics (DM) domain.", "label": "Study Day of Disposition", "name": "DSSTDY", "ordinal": "12", "role": "Timing", "simpleDatatype": "Num"}, {"_links": {"modelClassVariable": {"href": "/mdr/sdtm/1-6/classes/GeneralObservations/variables/--NOMDY", "title": "Nominal Study Day for Tabulations", "type": "Class Variable"}, "parentDataset": {"href": "/mdr/sendig/dart-1-1/datasets/DS", "title": "Disposition", "type": "SDTM Dataset"}, "parentProduct": {"href": "/mdr/sendig/dart-1-1", "title": "Standard for Exchange of Nonclinical Data Implementation Guide: Developmental and Reproductive Toxicology Version 1.1", "type": "Implementation Guide"}, "rootItem": {"href": "/mdr/root/sendig/datasets/DS/variables/DSNOMDY", "title": "Version-agnostic anchor resource for SENDIG variable DS.DSNOMDY", "type": "Root Data Element"}, "self": {"href": "/mdr/sendig/dart-1-1/datasets/DS/variables/DSNOMDY", "title": "Nominal Study Day for Tabulations", "type": "SDTM Dataset Variable"}}, "core": "Perm", "description": "Nominal study day used for grouping records for observations that may occur on different days into a single reported study day. Should be an integer.", "label": "Nominal Study Day for Tabulations", "name": "DSNOMDY", "ordinal": "13", "role": "Timing", "simpleDatatype": "Num"}, {"_links": {"modelClassVariable": {"href": "/mdr/sdtm/1-6/classes/GeneralObservations/variables/--NOMLBL", "title": "Label for Nominal Study Day", "type": "Class Variable"}, "parentDataset": {"href": "/mdr/sendig/dart-1-1/datasets/DS", "title": "Disposition", "type": "SDTM Dataset"}, "parentProduct": {"href": "/mdr/sendig/dart-1-1", "title": "Standard for Exchange of Nonclinical Data Implementation Guide: Developmental and Reproductive Toxicology Version 1.1", "type": "Implementation Guide"}, "rootItem": {"href": "/mdr/root/sendig/datasets/DS/variables/DSNOMLBL", "title": "Version-agnostic anchor resource for SENDIG variable DS.DSNOMLBL", "type": "Root Data Element"}, "self": {"href": "/mdr/sendig/dart-1-1/datasets/DS/variables/DSNOMLBL", "title": "Label for Nominal Study Day", "type": "SDTM Dataset Variable"}}, "core": "Perm", "description": "A label for a given value of DSNOMDY as presented in the study report. Examples: Week 4, Day 28, Terminal Sac.", "label": "Label for Nominal Study Day", "name": "DSNOMLBL", "ordinal": "14", "role": "Timing", "simpleDatatype": "Char"}, {"_links": {"modelClassVariable": {"href": "/mdr/sdtm/1-6/classes/GeneralObservations/variables/--RPSTDY", "title": "Actual Repro Phase Day of Obs Start", "type": "Class Variable"}, "parentDataset": {"href": "/mdr/sendig/dart-1-1/datasets/DS", "title": "Disposition", "type": "SDTM Dataset"}, "parentProduct": {"href": "/mdr/sendig/dart-1-1", "title": "Standard for Exchange of Nonclinical Data Implementation Guide: Developmental and Reproductive Toxicology Version 1.1", "type": "Implementation Guide"}, "rootItem": {"href": "/mdr/root/sendig/datasets/DS/variables/DSRPSTDY", "title": "Version-agnostic anchor resource for SENDIG variable DS.DSRPSTDY", "type": "Root Data Element"}, "self": {"href": "/mdr/sendig/dart-1-1/datasets/DS/variables/DSRPSTDY", "title": "Actual Repro Phase Day of Obs Start", "type": "SDTM Dataset Variable"}}, "core": "Exp", "description": "The actual day within the Reproductive Phase of the start of the observation. Expressed as an integer.", "label": "Actual Repro Phase Day of Obs Start", "name": "DSRPSTDY", "ordinal": "15", "role": "Timing", "simpleDatatype": "Num"}], "description": "An events domain that contains information encompassing and representing data related to subject disposition. (Source: CDISC Controlled Terminology, SDOMAIN, C49576, 2018-06-29)", "label": "Disposition", "name": "DS", "ordinal": "105"}], "description": "This SDTM class captures planned protocol milestones such as randomization and study completion, and occurrences, conditions, or incidents independent of planned study evaluations occurring during the trial (e.g., adverse events) or prior to the trial (e.g., medical history). (Source: CDISC Controlled Terminology, GNRLOBSC, C103372, 2018-06-29)", "label": "Events Observation Class", "name": "Events", "ordinal": "4"}, {"_links": {"modelClass": {"href": "/mdr/sdtm/1-6/classes/Findings", "title": "Findings Observation Class", "type": "Class"}, "parentClass": {"href": "/mdr/sendig/dart-1-1/classes/GeneralObservations", "title": "General Observation Class", "type": "Class"}, "parentProduct": {"href": "/mdr/sendig/dart-1-1", "title": "Standard for Exchange of Nonclinical Data Implementation Guide: Developmental and Reproductive Toxicology Version 1.1", "type": "Implementation Guide"}, "self": {"href": "/mdr/sendig/dart-1-1/classes/Findings", "title": "Findings Observation Class", "type": "Class"}}, "datasets": [{"_links": {"parentClass": {"href": "/mdr/sendig/dart-1-1/classes/Findings", "title": "Findings Observation Class", "type": "Class"}, "parentProduct": {"href": "/mdr/sendig/dart-1-1", "title": "Standard for Exchange of Nonclinical Data Implementation Guide: Developmental and Reproductive Toxicology Version 1.1", "type": "Implementation Guide"}, "self": {"href": "/mdr/sendig/dart-1-1/datasets/IC", "title": "Implantation Classification", "type": "SDTM Dataset"}}, "datasetStructure": "One record per implantation site per fetus per subject", "datasetVariables": [{"_links": {"modelClassVariable": {"href": "/mdr/sdtm/1-6/classes/GeneralObservations/variables/STUDYID", "title": "Study Identifier", "type": "Class Variable"}, "parentDataset": {"href": "/mdr/sendig/dart-1-1/datasets/IC", "title": "Implantation Classification", "type": "SDTM Dataset"}, "parentProduct": {"href": "/mdr/sendig/dart-1-1", "title": "Standard for Exchange of Nonclinical Data Implementation Guide: Developmental and Reproductive Toxicology Version 1.1", "type": "Implementation Guide"}, "rootItem": {"href": "/mdr/root/sendig/datasets/IC/variables/STUDYID", "title": "Version-agnostic anchor resource for SENDIG variable IC.STUDYID", "type": "Root Data Element"}, "self": {"href": "/mdr/sendig/dart-1-1/datasets/IC/variables/STUDYID", "title": "Study Identifier", "type": "SDTM Dataset Variable"}}, "core": "Req", "description": "Unique identifier for a study.", "label": "Study Identifier", "name": "STUDYID", "ordinal": "1", "role": "Identifier", "simpleDatatype": "Char"}, {"_links": {"modelClassVariable": {"href": "/mdr/sdtm/1-6/classes/GeneralObservations/variables/DOMAIN", "title": "Domain Abbreviation", "type": "Class Variable"}, "parentDataset": {"href": "/mdr/sendig/dart-1-1/datasets/IC", "title": "Implantation Classification", "type": "SDTM Dataset"}, "parentProduct": {"href": "/mdr/sendig/dart-1-1", "title": "Standard for Exchange of Nonclinical Data Implementation Guide: Developmental and Reproductive Toxicology Version 1.1", "type": "Implementation Guide"}, "rootItem": {"href": "/mdr/root/sendig/datasets/IC/variables/DOMAIN", "title": "Version-agnostic anchor resource for SENDIG variable IC.DOMAIN", "type": "Root Data Element"}, "self": {"href": "/mdr/sendig/dart-1-1/datasets/IC/variables/DOMAIN", "title": "Domain Abbreviation", "type": "SDTM Dataset Variable"}}, "core": "Req", "description": "Two-character abbreviation for the domain.", "label": "Domain Abbreviation", "name": "DOMAIN", "ordinal": "2", "role": "Identifier", "simpleDatatype": "Char", "valueList": ["IC"]}, {"_links": {"modelClassVariable": {"href": "/mdr/sdtm/1-6/classes/GeneralObservations/variables/USUBJID", "title": "Unique Subject Identifier", "type": "Class Variable"}, "parentDataset": {"href": "/mdr/sendig/dart-1-1/datasets/IC", "title": "Implantation Classification", "type": "SDTM Dataset"}, "parentProduct": {"href": "/mdr/sendig/dart-1-1", "title": "Standard for Exchange of Nonclinical Data Implementation Guide: Developmental and Reproductive Toxicology Version 1.1", "type": "Implementation Guide"}, "rootItem": {"href": "/mdr/root/sendig/datasets/IC/variables/USUBJID", "title": "Version-agnostic anchor resource for SENDIG variable IC.USUBJID", "type": "Root Data Element"}, "self": {"href": "/mdr/sendig/dart-1-1/datasets/IC/variables/USUBJID", "title": "Unique Subject Identifier", "type": "SDTM Dataset Variable"}}, "core": "Req", "description": "Identifier used to uniquely identify a subject across all studies for all applications or submissions involving the product.", "label": "Unique Subject Identifier", "name": "USUBJID", "ordinal": "3", "role": "Identifier", "simpleDatatype": "Char"}, {"_links": {"modelClassVariable": {"href": "/mdr/sdtm/1-6/classes/GeneralObservations/variables/FETUSID", "title": "Fetus Identifier", "type": "Class Variable"}, "parentDataset": {"href": "/mdr/sendig/dart-1-1/datasets/IC", "title": "Implantation Classification", "type": "SDTM Dataset"}, "parentProduct": {"href": "/mdr/sendig/dart-1-1", "title": "Standard for Exchange of Nonclinical Data Implementation Guide: Developmental and Reproductive Toxicology Version 1.1", "type": "Implementation Guide"}, "rootItem": {"href": "/mdr/root/sendig/datasets/IC/variables/FETUSID", "title": "Version-agnostic anchor resource for SENDIG variable IC.FETUSID", "type": "Root Data Element"}, "self": {"href": "/mdr/sendig/dart-1-1/datasets/IC/variables/FETUSID", "title": "Unique Fetus Identifier", "type": "SDTM Dataset Variable"}}, "core": "Exp", "description": "Identifier used to identify a fetus from a maternal subject for prenatal evaluations. Unique per USUBJID across a study.", "label": "Unique Fetus Identifier", "name": "FETUSID", "ordinal": "4", "role": "Identifier", "simpleDatatype": "Char"}, {"_links": {"modelClassVariable": {"href": "/mdr/sdtm/1-6/classes/GeneralObservations/variables/--SEQ", "title": "Sequence Number", "type": "Class Variable"}, "parentDataset": {"href": "/mdr/sendig/dart-1-1/datasets/IC", "title": "Implantation Classification", "type": "SDTM Dataset"}, "parentProduct": {"href": "/mdr/sendig/dart-1-1", "title": "Standard for Exchange of Nonclinical Data Implementation Guide: Developmental and Reproductive Toxicology Version 1.1", "type": "Implementation Guide"}, "rootItem": {"href": "/mdr/root/sendig/datasets/IC/variables/ICSEQ", "title": "Version-agnostic anchor resource for SENDIG variable IC.ICSEQ", "type": "Root Data Element"}, "self": {"href": "/mdr/sendig/dart-1-1/datasets/IC/variables/ICSEQ", "title": "Sequence Number", "type": "SDTM Dataset Variable"}}, "core": "Req", "description": "Sequence number given to ensure uniqueness of subject records within a domain. May be any valid number.", "label": "Sequence Number", "name": "ICSEQ", "ordinal": "5", "role": "Identifier", "simpleDatatype": "Num"}, {"_links": {"codelist": [{"href": "/mdr/root/ct/sendct/codelists/C124318", "title": "Version-agnostic anchor resource for codelist C124318", "type": "Root Value Domain"}], "modelClassVariable": {"href": "/mdr/sdtm/1-6/classes/Findings/variables/--TESTCD", "title": "Short Name of Measurement, Test or Examination", "type": "Class Variable"}, "parentDataset": {"href": "/mdr/sendig/dart-1-1/datasets/IC", "title": "Implantation Classification", "type": "SDTM Dataset"}, "parentProduct": {"href": "/mdr/sendig/dart-1-1", "title": "Standard for Exchange of Nonclinical Data Implementation Guide: Developmental and Reproductive Toxicology Version 1.1", "type": "Implementation Guide"}, "rootItem": {"href": "/mdr/root/sendig/datasets/IC/variables/ICTESTCD", "title": "Version-agnostic anchor resource for SENDIG variable IC.ICTESTCD", "type": "Root Data Element"}, "self": {"href": "/mdr/sendig/dart-1-1/datasets/IC/variables/ICTESTCD", "title": "Test Short Name", "type": "SDTM Dataset Variable"}}, "core": "Req", "description": "Short name of the measurement, test, or examination described in ICTEST. It can be used as a column name when converting a dataset from a vertical format to a horizontal format. The value in ICTESTCD cannot be longer than 8 characters, nor can it start with a number.", "label": "Test Short Name", "name": "ICTESTCD", "ordinal": "6", "role": "Topic", "simpleDatatype": "Char"}, {"_links": {"codelist": [{"href": "/mdr/root/ct/sendct/codelists/C124319", "title": "Version-agnostic anchor resource for codelist C124319", "type": "Root Value Domain"}], "modelClassVariable": {"href": "/mdr/sdtm/1-6/classes/Findings/variables/--TEST", "title": "Name of Measurement, Test or Examination", "type": "Class Variable"}, "parentDataset": {"href": "/mdr/sendig/dart-1-1/datasets/IC", "title": "Implantation Classification", "type": "SDTM Dataset"}, "parentProduct": {"href": "/mdr/sendig/dart-1-1", "title": "Standard for Exchange of Nonclinical Data Implementation Guide: Developmental and Reproductive Toxicology Version 1.1", "type": "Implementation Guide"}, "rootItem": {"href": "/mdr/root/sendig/datasets/IC/variables/ICTEST", "title": "Version-agnostic anchor resource for SENDIG variable IC.ICTEST", "type": "Root Data Element"}, "self": {"href": "/mdr/sendig/dart-1-1/datasets/IC/variables/ICTEST", "title": "Implantation Exam Name", "type": "SDTM Dataset Variable"}}, "core": "Req", "description": "Name for ICTESTCD (e.g., Implantation Site Characterization). The value in ICTEST cannot be longer than 40 characters.", "label": "Implantation Exam Name", "name": "ICTEST", "ordinal": "7", "role": "Synonym Qualifier", "simpleDatatype": "Char"}, {"_links": {"modelClassVariable": {"href": "/mdr/sdtm/1-6/classes/Findings/variables/--ORRES", "title": "Result or Finding in Original Units", "type": "Class Variable"}, "parentDataset": {"href": "/mdr/sendig/dart-1-1/datasets/IC", "title": "Implantation Classification", "type": "SDTM Dataset"}, "parentProduct": {"href": "/mdr/sendig/dart-1-1", "title": "Standard for Exchange of Nonclinical Data Implementation Guide: Developmental and Reproductive Toxicology Version 1.1", "type": "Implementation Guide"}, "rootItem": {"href": "/mdr/root/sendig/datasets/IC/variables/ICORRES", "title": "Version-agnostic anchor resource for SENDIG variable IC.ICORRES", "type": "Root Data Element"}, "self": {"href": "/mdr/sendig/dart-1-1/datasets/IC/variables/ICORRES", "title": "Result or Findings as Collected", "type": "SDTM Dataset Variable"}}, "core": "Exp", "description": "Implantation Classification finding or observation as originally received or collected.", "label": "Result or Findings as Collected", "name": "ICORRES", "ordinal": "8", "role": "Result Qualifier", "simpleDatatype": "Char"}, {"_links": {"codelist": [{"href": "/mdr/root/ct/sendct/codelists/C124317", "title": "Version-agnostic anchor resource for codelist C124317", "type": "Root Value Domain"}], "modelClassVariable": {"href": "/mdr/sdtm/1-6/classes/Findings/variables/--STRESC", "title": "Result or Finding in Standard Format", "type": "Class Variable"}, "parentDataset": {"href": "/mdr/sendig/dart-1-1/datasets/IC", "title": "Implantation Classification", "type": "SDTM Dataset"}, "parentProduct": {"href": "/mdr/sendig/dart-1-1", "title": "Standard for Exchange of Nonclinical Data Implementation Guide: Developmental and Reproductive Toxicology Version 1.1", "type": "Implementation Guide"}, "rootItem": {"href": "/mdr/root/sendig/datasets/IC/variables/ICSTRESC", "title": "Version-agnostic anchor resource for SENDIG variable IC.ICSTRESC", "type": "Root Data Element"}, "self": {"href": "/mdr/sendig/dart-1-1/datasets/IC/variables/ICSTRESC", "title": "Standardized Results in Character Format", "type": "SDTM Dataset Variable"}}, "core": "Exp", "description": "Contains the result value for all findings, copied or derived from ICORRES in a standard format. ICSTRESC should store all results or findings in character format.", "label": "Standardized Results in Character Format", "name": "ICSTRESC", "ordinal": "9", "role": "Result Qualifier", "simpleDatatype": "Char"}, {"_links": {"parentDataset": {"href": "/mdr/sendig/dart-1-1/datasets/IC", "title": "Implantation Classification", "type": "SDTM Dataset"}, "parentProduct": {"href": "/mdr/sendig/dart-1-1", "title": "Standard for Exchange of Nonclinical Data Implementation Guide: Developmental and Reproductive Toxicology Version 1.1", "type": "Implementation Guide"}, "rootItem": {"href": "/mdr/root/sendig/datasets/IC/variables/ICIMPLBL", "title": "Version-agnostic anchor resource for SENDIG variable IC.ICIMPLBL", "type": "Root Data Element"}, "self": {"href": "/mdr/sendig/dart-1-1/datasets/IC/variables/ICIMPLBL", "title": "Implantation Site Label", "type": "SDTM Dataset Variable"}}, "core": "Req", "description": "Label or identifier that describes the location or position of an implantation site in the uterus (or uterine horn). e.g., Sponsor 1: 1L, 2L, 3L, 1R, 2R e.g., Sponsor 2: 1L, 2L, 3L, 4R, 5R e.g., Sponsor 3: 1, 2, 3, 4, 5", "label": "Implantation Site Label", "name": "ICIMPLBL", "ordinal": "10", "role": "Record Qualifier", "simpleDatatype": "Char"}, {"_links": {"codelist": [{"href": "/mdr/root/ct/sendct/codelists/C124316", "title": "Version-agnostic anchor resource for codelist C124316", "type": "Root Value Domain"}], "modelClassVariable": {"href": "/mdr/sdtm/1-6/classes/Findings/variables/--RESCAT", "title": "Result Category", "type": "Class Variable"}, "parentDataset": {"href": "/mdr/sendig/dart-1-1/datasets/IC", "title": "Implantation Classification", "type": "SDTM Dataset"}, "parentProduct": {"href": "/mdr/sendig/dart-1-1", "title": "Standard for Exchange of Nonclinical Data Implementation Guide: Developmental and Reproductive Toxicology Version 1.1", "type": "Implementation Guide"}, "rootItem": {"href": "/mdr/root/sendig/datasets/IC/variables/ICRESCAT", "title": "Version-agnostic anchor resource for SENDIG variable IC.ICRESCAT", "type": "Root Data Element"}, "self": {"href": "/mdr/sendig/dart-1-1/datasets/IC/variables/ICRESCAT", "title": "Result Category", "type": "SDTM Dataset Variable"}}, "core": "Exp", "description": "Used to categorize the result of the finding (e.g., FETUS, RESORPTION, EMBRYO).", "label": "Result Category", "name": "ICRESCAT", "ordinal": "11", "role": "Variable Qualifier", "simpleDatatype": "Char"}, {"_links": {"modelClassVariable": {"href": "/mdr/sdtm/1-6/classes/Findings/variables/--RESLOC", "title": "Result Location of Finding", "type": "Class Variable"}, "parentDataset": {"href": "/mdr/sendig/dart-1-1/datasets/IC", "title": "Implantation Classification", "type": "SDTM Dataset"}, "parentProduct": {"href": "/mdr/sendig/dart-1-1", "title": "Standard for Exchange of Nonclinical Data Implementation Guide: Developmental and Reproductive Toxicology Version 1.1", "type": "Implementation Guide"}, "rootItem": {"href": "/mdr/root/sendig/datasets/IC/variables/ICRESLOC", "title": "Version-agnostic anchor resource for SENDIG variable IC.ICRESLOC", "type": "Root Data Element"}, "self": {"href": "/mdr/sendig/dart-1-1/datasets/IC/variables/ICRESLOC", "title": "Result Location of Finding", "type": "SDTM Dataset Variable"}}, "core": "Exp", "description": "Location where the result was observed (as opposed to the tissue specified for examination), if collected. This location may have a higher degree of specificity than the tissue specified for examination (ICSPEC). This is the uterine horn location of the observed implantation site in species that have a Left and Right Uterine Horn. Should be populated if ICIMPLBL is not unique per horn.", "label": "Result Location of Finding", "name": "ICRESLOC", "ordinal": "12", "role": "Result Qualifier", "simpleDatatype": "Char"}, {"_links": {"codelist": [{"href": "/mdr/root/ct/sendct/codelists/C66789", "title": "Version-agnostic anchor resource for codelist C66789", "type": "Root Value Domain"}], "modelClassVariable": {"href": "/mdr/sdtm/1-6/classes/Findings/variables/--STAT", "title": "Completion Status", "type": "Class Variable"}, "parentDataset": {"href": "/mdr/sendig/dart-1-1/datasets/IC", "title": "Implantation Classification", "type": "SDTM Dataset"}, "parentProduct": {"href": "/mdr/sendig/dart-1-1", "title": "Standard for Exchange of Nonclinical Data Implementation Guide: Developmental and Reproductive Toxicology Version 1.1", "type": "Implementation Guide"}, "rootItem": {"href": "/mdr/root/sendig/datasets/IC/variables/ICSTAT", "title": "Version-agnostic anchor resource for SENDIG variable IC.ICSTAT", "type": "Root Data Element"}, "self": {"href": "/mdr/sendig/dart-1-1/datasets/IC/variables/ICSTAT", "title": "Completion Status", "type": "SDTM Dataset Variable"}}, "core": "Perm", "description": "Used to indicate when a test or examination was not done or result is missing. Should be null if a result exists in ICORRES.", "label": "Completion Status", "name": "ICSTAT", "ordinal": "13", "role": "Record Qualifier", "simpleDatatype": "Char"}, {"_links": {"modelClassVariable": {"href": "/mdr/sdtm/1-6/classes/Findings/variables/--REASND", "title": "Reason Not Done", "type": "Class Variable"}, "parentDataset": {"href": "/mdr/sendig/dart-1-1/datasets/IC", "title": "Implantation Classification", "type": "SDTM Dataset"}, "parentProduct": {"href": "/mdr/sendig/dart-1-1", "title": "Standard for Exchange of Nonclinical Data Implementation Guide: Developmental and Reproductive Toxicology Version 1.1", "type": "Implementation Guide"}, "rootItem": {"href": "/mdr/root/sendig/datasets/IC/variables/ICREASND", "title": "Version-agnostic anchor resource for SENDIG variable IC.ICREASND", "type": "Root Data Element"}, "self": {"href": "/mdr/sendig/dart-1-1/datasets/IC/variables/ICREASND", "title": "Reason Not Done", "type": "SDTM Dataset Variable"}}, "core": "Perm", "description": "Describes why ICSTAT is NOT DONE. Use only in conjunction with ICSTAT when value is NOT DONE.", "label": "Reason Not Done", "name": "ICREASND", "ordinal": "14", "role": "Record Qualifier", "simpleDatatype": "Char"}, {"_links": {"codelist": [{"href": "/mdr/root/ct/sendct/codelists/C77529", "title": "Version-agnostic anchor resource for codelist C77529", "type": "Root Value Domain"}], "modelClassVariable": {"href": "/mdr/sdtm/1-6/classes/Findings/variables/--SPEC", "title": "Specimen Material Type", "type": "Class Variable"}, "parentDataset": {"href": "/mdr/sendig/dart-1-1/datasets/IC", "title": "Implantation Classification", "type": "SDTM Dataset"}, "parentProduct": {"href": "/mdr/sendig/dart-1-1", "title": "Standard for Exchange of Nonclinical Data Implementation Guide: Developmental and Reproductive Toxicology Version 1.1", "type": "Implementation Guide"}, "rootItem": {"href": "/mdr/root/sendig/datasets/IC/variables/ICSPEC", "title": "Version-agnostic anchor resource for SENDIG variable IC.ICSPEC", "type": "Root Data Element"}, "self": {"href": "/mdr/sendig/dart-1-1/datasets/IC/variables/ICSPEC", "title": "Specimen Material Type", "type": "SDTM Dataset Variable"}}, "core": "Perm", "description": "Should always be the controlled term for Uterus when used.", "label": "Specimen Material Type", "name": "ICSPEC", "ordinal": "15", "role": "Record Qualifier", "simpleDatatype": "Char"}, {"_links": {"codelist": [{"href": "/mdr/root/ct/sendct/codelists/C124321", "title": "Version-agnostic anchor resource for codelist C124321", "type": "Root Value Domain"}], "modelClassVariable": {"href": "/mdr/sdtm/1-6/classes/GeneralObservations/variables/RPHASE", "title": "Repro Phase", "type": "Class Variable"}, "parentDataset": {"href": "/mdr/sendig/dart-1-1/datasets/IC", "title": "Implantation Classification", "type": "SDTM Dataset"}, "parentProduct": {"href": "/mdr/sendig/dart-1-1", "title": "Standard for Exchange of Nonclinical Data Implementation Guide: Developmental and Reproductive Toxicology Version 1.1", "type": "Implementation Guide"}, "rootItem": {"href": "/mdr/root/sendig/datasets/IC/variables/RPHASE", "title": "Version-agnostic anchor resource for SENDIG variable IC.RPHASE", "type": "Root Data Element"}, "self": {"href": "/mdr/sendig/dart-1-1/datasets/IC/variables/RPHASE", "title": "Repro Phase", "type": "SDTM Dataset Variable"}}, "core": "Exp", "description": "Name of the Reproductive Phase associated with date/time of the observation. RPHASE is required when any Repro Phase timing variable is used.", "label": "Repro Phase", "name": "RPHASE", "ordinal": "16", "role": "Timing", "simpleDatatype": "Char"}, {"_links": {"modelClassVariable": {"href": "/mdr/sdtm/1-6/classes/GeneralObservations/variables/RPPLDY", "title": "Planned Repro Phase Day of Observation", "type": "Class Variable"}, "parentDataset": {"href": "/mdr/sendig/dart-1-1/datasets/IC", "title": "Implantation Classification", "type": "SDTM Dataset"}, "parentProduct": {"href": "/mdr/sendig/dart-1-1", "title": "Standard for Exchange of Nonclinical Data Implementation Guide: Developmental and Reproductive Toxicology Version 1.1", "type": "Implementation Guide"}, "rootItem": {"href": "/mdr/root/sendig/datasets/IC/variables/RPPLDY", "title": "Version-agnostic anchor resource for SENDIG variable IC.RPPLDY", "type": "Root Data Element"}, "self": {"href": "/mdr/sendig/dart-1-1/datasets/IC/variables/RPPLDY", "title": "Planned Repro Phase Day of Observation", "type": "SDTM Dataset Variable"}}, "core": "Exp", "description": "Planned day within the Reproductive Phase the uterine examination was scheduled to occur. Used in conjunction with RPHASE. Should be an integer.", "label": "Planned Repro Phase Day of Observation", "name": "RPPLDY", "ordinal": "17", "role": "Timing", "simpleDatatype": "Num"}, {"_links": {"modelClassVariable": {"href": "/mdr/sdtm/1-6/classes/GeneralObservations/variables/--DTC", "title": "Date/Time of Collection", "type": "Class Variable"}, "parentDataset": {"href": "/mdr/sendig/dart-1-1/datasets/IC", "title": "Implantation Classification", "type": "SDTM Dataset"}, "parentProduct": {"href": "/mdr/sendig/dart-1-1", "title": "Standard for Exchange of Nonclinical Data Implementation Guide: Developmental and Reproductive Toxicology Version 1.1", "type": "Implementation Guide"}, "rootItem": {"href": "/mdr/root/sendig/datasets/IC/variables/ICDTC", "title": "Version-agnostic anchor resource for SENDIG variable IC.ICDTC", "type": "Root Data Element"}, "self": {"href": "/mdr/sendig/dart-1-1/datasets/IC/variables/ICDTC", "title": "Date/Time", "type": "SDTM Dataset Variable"}}, "core": "Exp", "describedValueDomain": "ISO 8601", "description": "Collection date and time of the uterine examination represented in ISO 8601 character format.", "label": "Date/Time", "name": "ICDTC", "ordinal": "18", "role": "Timing", "simpleDatatype": "Char"}, {"_links": {"modelClassVariable": {"href": "/mdr/sdtm/1-6/classes/GeneralObservations/variables/--DY", "title": "Study Day of Visit/Collection/Exam", "type": "Class Variable"}, "parentDataset": {"href": "/mdr/sendig/dart-1-1/datasets/IC", "title": "Implantation Classification", "type": "SDTM Dataset"}, "parentProduct": {"href": "/mdr/sendig/dart-1-1", "title": "Standard for Exchange of Nonclinical Data Implementation Guide: Developmental and Reproductive Toxicology Version 1.1", "type": "Implementation Guide"}, "rootItem": {"href": "/mdr/root/sendig/datasets/IC/variables/ICDY", "title": "Version-agnostic anchor resource for SENDIG variable IC.ICDY", "type": "Root Data Element"}, "self": {"href": "/mdr/sendig/dart-1-1/datasets/IC/variables/ICDY", "title": "Study Day", "type": "SDTM Dataset Variable"}}, "core": "Perm", "description": "Study day of the uterine examination expressed in integer days relative to the protocol-defined RFSTDTC.", "label": "Study Day", "name": "ICDY", "ordinal": "19", "role": "Timing", "simpleDatatype": "Num"}, {"_links": {"modelClassVariable": {"href": "/mdr/sdtm/1-6/classes/GeneralObservations/variables/--RPDY", "title": "Actual Repro Phase Day of Observation", "type": "Class Variable"}, "parentDataset": {"href": "/mdr/sendig/dart-1-1/datasets/IC", "title": "Implantation Classification", "type": "SDTM Dataset"}, "parentProduct": {"href": "/mdr/sendig/dart-1-1", "title": "Standard for Exchange of Nonclinical Data Implementation Guide: Developmental and Reproductive Toxicology Version 1.1", "type": "Implementation Guide"}, "rootItem": {"href": "/mdr/root/sendig/datasets/IC/variables/ICRPDY", "title": "Version-agnostic anchor resource for SENDIG variable IC.ICRPDY", "type": "Root Data Element"}, "self": {"href": "/mdr/sendig/dart-1-1/datasets/IC/variables/ICRPDY", "title": "Actual Repro Phase Day of Observation", "type": "SDTM Dataset Variable"}}, "core": "Exp", "description": "Actual day within the Reproductive Phase the uterine examination occurred. Used in conjunction with RPHASE. Should be an integer.", "label": "Actual Repro Phase Day of Observation", "name": "ICRPDY", "ordinal": "20", "role": "Timing", "simpleDatatype": "Num"}], "description": "The Implantation Classification domain provides a record for each implantation identified for the scheduled cesarean section component of a study. (Source: CDISC Controlled Terminology, SDOMAIN, C95092, 2018-06-29)", "label": "Implantation Classification", "name": "IC", "ordinal": "2"}, {"_links": {"parentClass": {"href": "/mdr/sendig/dart-1-1/classes/Findings", "title": "Findings Observation Class", "type": "Class"}, "parentProduct": {"href": "/mdr/sendig/dart-1-1", "title": "Standard for Exchange of Nonclinical Data Implementation Guide: Developmental and Reproductive Toxicology Version 1.1", "type": "Implementation Guide"}, "self": {"href": "/mdr/sendig/dart-1-1/datasets/PY", "title": "Nonclinical Pregnancy Results", "type": "SDTM Dataset"}}, "datasetStructure": "One record per test per subject per finding", "datasetVariables": [{"_links": {"modelClassVariable": {"href": "/mdr/sdtm/1-6/classes/GeneralObservations/variables/STUDYID", "title": "Study Identifier", "type": "Class Variable"}, "parentDataset": {"href": "/mdr/sendig/dart-1-1/datasets/PY", "title": "Nonclinical Pregnancy Results", "type": "SDTM Dataset"}, "parentProduct": {"href": "/mdr/sendig/dart-1-1", "title": "Standard for Exchange of Nonclinical Data Implementation Guide: Developmental and Reproductive Toxicology Version 1.1", "type": "Implementation Guide"}, "rootItem": {"href": "/mdr/root/sendig/datasets/PY/variables/STUDYID", "title": "Version-agnostic anchor resource for SENDIG variable PY.STUDYID", "type": "Root Data Element"}, "self": {"href": "/mdr/sendig/dart-1-1/datasets/PY/variables/STUDYID", "title": "Study Identifier", "type": "SDTM Dataset Variable"}}, "core": "Req", "description": "Unique identifier for a study.", "label": "Study Identifier", "name": "STUDYID", "ordinal": "1", "role": "Identifier", "simpleDatatype": "Char"}, {"_links": {"modelClassVariable": {"href": "/mdr/sdtm/1-6/classes/GeneralObservations/variables/DOMAIN", "title": "Domain Abbreviation", "type": "Class Variable"}, "parentDataset": {"href": "/mdr/sendig/dart-1-1/datasets/PY", "title": "Nonclinical Pregnancy Results", "type": "SDTM Dataset"}, "parentProduct": {"href": "/mdr/sendig/dart-1-1", "title": "Standard for Exchange of Nonclinical Data Implementation Guide: Developmental and Reproductive Toxicology Version 1.1", "type": "Implementation Guide"}, "rootItem": {"href": "/mdr/root/sendig/datasets/PY/variables/DOMAIN", "title": "Version-agnostic anchor resource for SENDIG variable PY.DOMAIN", "type": "Root Data Element"}, "self": {"href": "/mdr/sendig/dart-1-1/datasets/PY/variables/DOMAIN", "title": "Domain Abbreviation", "type": "SDTM Dataset Variable"}}, "core": "Req", "description": "Two-character abbreviation for the domain.", "label": "Domain Abbreviation", "name": "DOMAIN", "ordinal": "2", "role": "Identifier", "simpleDatatype": "Char", "valueList": ["PY"]}, {"_links": {"modelClassVariable": {"href": "/mdr/sdtm/1-6/classes/GeneralObservations/variables/USUBJID", "title": "Unique Subject Identifier", "type": "Class Variable"}, "parentDataset": {"href": "/mdr/sendig/dart-1-1/datasets/PY", "title": "Nonclinical Pregnancy Results", "type": "SDTM Dataset"}, "parentProduct": {"href": "/mdr/sendig/dart-1-1", "title": "Standard for Exchange of Nonclinical Data Implementation Guide: Developmental and Reproductive Toxicology Version 1.1", "type": "Implementation Guide"}, "rootItem": {"href": "/mdr/root/sendig/datasets/PY/variables/USUBJID", "title": "Version-agnostic anchor resource for SENDIG variable PY.USUBJID", "type": "Root Data Element"}, "self": {"href": "/mdr/sendig/dart-1-1/datasets/PY/variables/USUBJID", "title": "Unique Subject Identifier", "type": "SDTM Dataset Variable"}}, "core": "Req", "description": "Identifier used to uniquely identify a subject across all studies for all applications or submissions involving the product.", "label": "Unique Subject Identifier", "name": "USUBJID", "ordinal": "3", "role": "Identifier", "simpleDatatype": "Char"}, {"_links": {"modelClassVariable": {"href": "/mdr/sdtm/1-6/classes/GeneralObservations/variables/--SEQ", "title": "Sequence Number", "type": "Class Variable"}, "parentDataset": {"href": "/mdr/sendig/dart-1-1/datasets/PY", "title": "Nonclinical Pregnancy Results", "type": "SDTM Dataset"}, "parentProduct": {"href": "/mdr/sendig/dart-1-1", "title": "Standard for Exchange of Nonclinical Data Implementation Guide: Developmental and Reproductive Toxicology Version 1.1", "type": "Implementation Guide"}, "rootItem": {"href": "/mdr/root/sendig/datasets/PY/variables/PYSEQ", "title": "Version-agnostic anchor resource for SENDIG variable PY.PYSEQ", "type": "Root Data Element"}, "self": {"href": "/mdr/sendig/dart-1-1/datasets/PY/variables/PYSEQ", "title": "Sequence Number", "type": "SDTM Dataset Variable"}}, "core": "Req", "description": "Sequence number given to ensure uniqueness of subject records within a domain. May be any valid number.", "label": "Sequence Number", "name": "PYSEQ", "ordinal": "4", "role": "Identifier", "simpleDatatype": "Num"}, {"_links": {"codelist": [{"href": "/mdr/root/ct/sendct/codelists/C124324", "title": "Version-agnostic anchor resource for codelist C124324", "type": "Root Value Domain"}], "modelClassVariable": {"href": "/mdr/sdtm/1-6/classes/Findings/variables/--TESTCD", "title": "Short Name of Measurement, Test or Examination", "type": "Class Variable"}, "parentDataset": {"href": "/mdr/sendig/dart-1-1/datasets/PY", "title": "Nonclinical Pregnancy Results", "type": "SDTM Dataset"}, "parentProduct": {"href": "/mdr/sendig/dart-1-1", "title": "Standard for Exchange of Nonclinical Data Implementation Guide: Developmental and Reproductive Toxicology Version 1.1", "type": "Implementation Guide"}, "rootItem": {"href": "/mdr/root/sendig/datasets/PY/variables/PYTESTCD", "title": "Version-agnostic anchor resource for SENDIG variable PY.PYTESTCD", "type": "Root Data Element"}, "self": {"href": "/mdr/sendig/dart-1-1/datasets/PY/variables/PYTESTCD", "title": "Test Short Name", "type": "SDTM Dataset Variable"}}, "core": "Req", "description": "Short name of the measurement, test, or examination described in PYTEST. The value in PYTESTCD cannot be longer than 8 characters, nor can it start with a number. PYTESTCD cannot contain characters other than letters, numbers, or underscores.", "label": "Test Short Name", "name": "PYTESTCD", "ordinal": "5", "role": "Topic", "simpleDatatype": "Char"}, {"_links": {"codelist": [{"href": "/mdr/root/ct/sendct/codelists/C124325", "title": "Version-agnostic anchor resource for codelist C124325", "type": "Root Value Domain"}], "modelClassVariable": {"href": "/mdr/sdtm/1-6/classes/Findings/variables/--TEST", "title": "Name of Measurement, Test or Examination", "type": "Class Variable"}, "parentDataset": {"href": "/mdr/sendig/dart-1-1/datasets/PY", "title": "Nonclinical Pregnancy Results", "type": "SDTM Dataset"}, "parentProduct": {"href": "/mdr/sendig/dart-1-1", "title": "Standard for Exchange of Nonclinical Data Implementation Guide: Developmental and Reproductive Toxicology Version 1.1", "type": "Implementation Guide"}, "rootItem": {"href": "/mdr/root/sendig/datasets/PY/variables/PYTEST", "title": "Version-agnostic anchor resource for SENDIG variable PY.PYTEST", "type": "Root Data Element"}, "self": {"href": "/mdr/sendig/dart-1-1/datasets/PY/variables/PYTEST", "title": "Pregnancy Result Test Name", "type": "SDTM Dataset Variable"}}, "core": "Req", "description": "Long name for PYTESTCD. The value in PYTEST cannot be longer than 40 characters. Examples: Pregnancy Status, Corpora Lutea Count, Postimplantation Loss, Number of Implantations.", "label": "Pregnancy Result Test Name", "name": "PYTEST", "ordinal": "6", "role": "Synonym Qualifier", "simpleDatatype": "Char"}, {"_links": {"modelClassVariable": {"href": "/mdr/sdtm/1-6/classes/Findings/variables/--ORRES", "title": "Result or Finding in Original Units", "type": "Class Variable"}, "parentDataset": {"href": "/mdr/sendig/dart-1-1/datasets/PY", "title": "Nonclinical Pregnancy Results", "type": "SDTM Dataset"}, "parentProduct": {"href": "/mdr/sendig/dart-1-1", "title": "Standard for Exchange of Nonclinical Data Implementation Guide: Developmental and Reproductive Toxicology Version 1.1", "type": "Implementation Guide"}, "rootItem": {"href": "/mdr/root/sendig/datasets/PY/variables/PYORRES", "title": "Version-agnostic anchor resource for SENDIG variable PY.PYORRES", "type": "Root Data Element"}, "self": {"href": "/mdr/sendig/dart-1-1/datasets/PY/variables/PYORRES", "title": "Result or Findings as Collected", "type": "SDTM Dataset Variable"}}, "core": "Exp", "description": "Result of the measurement or finding as originally received or collected.", "label": "Result or Findings as Collected", "name": "PYORRES", "ordinal": "7", "role": "Result Qualifier", "simpleDatatype": "Char"}, {"_links": {"codelist": [{"href": "/mdr/root/ct/sendct/codelists/C71620", "title": "Version-agnostic anchor resource for codelist C71620", "type": "Root Value Domain"}], "modelClassVariable": {"href": "/mdr/sdtm/1-6/classes/Findings/variables/--ORRESU", "title": "Original Units", "type": "Class Variable"}, "parentDataset": {"href": "/mdr/sendig/dart-1-1/datasets/PY", "title": "Nonclinical Pregnancy Results", "type": "SDTM Dataset"}, "parentProduct": {"href": "/mdr/sendig/dart-1-1", "title": "Standard for Exchange of Nonclinical Data Implementation Guide: Developmental and Reproductive Toxicology Version 1.1", "type": "Implementation Guide"}, "rootItem": {"href": "/mdr/root/sendig/datasets/PY/variables/PYORRESU", "title": "Version-agnostic anchor resource for SENDIG variable PY.PYORRESU", "type": "Root Data Element"}, "self": {"href": "/mdr/sendig/dart-1-1/datasets/PY/variables/PYORRESU", "title": "Unit of the Original Result", "type": "SDTM Dataset Variable"}}, "core": "Exp", "description": "The unit of the original result if applicable for a numeric result. The unit of the original result should be mapped to a synonymous unit on the Controlled Terminology list.", "label": "Unit of the Original Result", "name": "PYORRESU", "ordinal": "8", "role": "Variable Qualifier", "simpleDatatype": "Char"}, {"_links": {"codelist": [{"href": "/mdr/root/ct/sendct/codelists/C124323", "title": "Version-agnostic anchor resource for codelist C124323", "type": "Root Value Domain"}], "modelClassVariable": {"href": "/mdr/sdtm/1-6/classes/Findings/variables/--STRESC", "title": "Result or Finding in Standard Format", "type": "Class Variable"}, "parentDataset": {"href": "/mdr/sendig/dart-1-1/datasets/PY", "title": "Nonclinical Pregnancy Results", "type": "SDTM Dataset"}, "parentProduct": {"href": "/mdr/sendig/dart-1-1", "title": "Standard for Exchange of Nonclinical Data Implementation Guide: Developmental and Reproductive Toxicology Version 1.1", "type": "Implementation Guide"}, "rootItem": {"href": "/mdr/root/sendig/datasets/PY/variables/PYSTRESC", "title": "Version-agnostic anchor resource for SENDIG variable PY.PYSTRESC", "type": "Root Data Element"}, "self": {"href": "/mdr/sendig/dart-1-1/datasets/PY/variables/PYSTRESC", "title": "Standardized Results in Character Format", "type": "SDTM Dataset Variable"}}, "core": "Exp", "description": "Contains the result value for all findings, copied or derived from PYORRES in a standard format or in standard units. PYSTRESC should store all results or findings in character format; if results are numeric, they should also be stored in numeric format in PYSTRESN. When PYTESTCD is PREGSTAT, PYSTRESC must use the controlled terminology list for PYSTRESC.", "label": "Standardized Results in Character Format", "name": "PYSTRESC", "ordinal": "9", "role": "Result Qualifier", "simpleDatatype": "Char"}, {"_links": {"modelClassVariable": {"href": "/mdr/sdtm/1-6/classes/Findings/variables/--STRESN", "title": "Numeric Result/Finding in Standard Units", "type": "Class Variable"}, "parentDataset": {"href": "/mdr/sendig/dart-1-1/datasets/PY", "title": "Nonclinical Pregnancy Results", "type": "SDTM Dataset"}, "parentProduct": {"href": "/mdr/sendig/dart-1-1", "title": "Standard for Exchange of Nonclinical Data Implementation Guide: Developmental and Reproductive Toxicology Version 1.1", "type": "Implementation Guide"}, "rootItem": {"href": "/mdr/root/sendig/datasets/PY/variables/PYSTRESN", "title": "Version-agnostic anchor resource for SENDIG variable PY.PYSTRESN", "type": "Root Data Element"}, "self": {"href": "/mdr/sendig/dart-1-1/datasets/PY/variables/PYSTRESN", "title": "Standardized Results in Numeric Format", "type": "SDTM Dataset Variable"}}, "core": "Exp", "description": "Used for continuous or numeric results or findings in standard format; copied in numeric format from PYSTRESC. PYSTRESN should store all numeric test results or findings.", "label": "Standardized Results in Numeric Format", "name": "PYSTRESN", "ordinal": "10", "role": "Result Qualifier", "simpleDatatype": "Num"}, {"_links": {"codelist": [{"href": "/mdr/root/ct/sendct/codelists/C71620", "title": "Version-agnostic anchor resource for codelist C71620", "type": "Root Value Domain"}], "modelClassVariable": {"href": "/mdr/sdtm/1-6/classes/Findings/variables/--STRESU", "title": "Standard Units", "type": "Class Variable"}, "parentDataset": {"href": "/mdr/sendig/dart-1-1/datasets/PY", "title": "Nonclinical Pregnancy Results", "type": "SDTM Dataset"}, "parentProduct": {"href": "/mdr/sendig/dart-1-1", "title": "Standard for Exchange of Nonclinical Data Implementation Guide: Developmental and Reproductive Toxicology Version 1.1", "type": "Implementation Guide"}, "rootItem": {"href": "/mdr/root/sendig/datasets/PY/variables/PYSTRESU", "title": "Version-agnostic anchor resource for SENDIG variable PY.PYSTRESU", "type": "Root Data Element"}, "self": {"href": "/mdr/sendig/dart-1-1/datasets/PY/variables/PYSTRESU", "title": "Unit of the Standardized Result", "type": "SDTM Dataset Variable"}}, "core": "Exp", "description": "Standardized unit used for PYSTRESC and PYSTRESN", "label": "Unit of the Standardized Result", "name": "PYSTRESU", "ordinal": "11", "role": "Variable Qualifier", "simpleDatatype": "Char"}, {"_links": {"codelist": [{"href": "/mdr/root/ct/sendct/codelists/C124322", "title": "Version-agnostic anchor resource for codelist C124322", "type": "Root Value Domain"}], "modelClassVariable": {"href": "/mdr/sdtm/1-6/classes/Findings/variables/--RESCAT", "title": "Result Category", "type": "Class Variable"}, "parentDataset": {"href": "/mdr/sendig/dart-1-1/datasets/PY", "title": "Nonclinical Pregnancy Results", "type": "SDTM Dataset"}, "parentProduct": {"href": "/mdr/sendig/dart-1-1", "title": "Standard for Exchange of Nonclinical Data Implementation Guide: Developmental and Reproductive Toxicology Version 1.1", "type": "Implementation Guide"}, "rootItem": {"href": "/mdr/root/sendig/datasets/PY/variables/PYRESCAT", "title": "Version-agnostic anchor resource for SENDIG variable PY.PYRESCAT", "type": "Root Data Element"}, "self": {"href": "/mdr/sendig/dart-1-1/datasets/PY/variables/PYRESCAT", "title": "Result Category", "type": "SDTM Dataset Variable"}}, "core": "Exp", "description": "Used to categorize the result when PYTEST is Pregnancy Status.", "label": "Result Category", "name": "PYRESCAT", "ordinal": "12", "role": "Variable Qualifier", "simpleDatatype": "Char"}, {"_links": {"modelClassVariable": {"href": "/mdr/sdtm/1-6/classes/Findings/variables/--RESLOC", "title": "Result Location of Finding", "type": "Class Variable"}, "parentDataset": {"href": "/mdr/sendig/dart-1-1/datasets/PY", "title": "Nonclinical Pregnancy Results", "type": "SDTM Dataset"}, "parentProduct": {"href": "/mdr/sendig/dart-1-1", "title": "Standard for Exchange of Nonclinical Data Implementation Guide: Developmental and Reproductive Toxicology Version 1.1", "type": "Implementation Guide"}, "rootItem": {"href": "/mdr/root/sendig/datasets/PY/variables/PYRESLOC", "title": "Version-agnostic anchor resource for SENDIG variable PY.PYRESLOC", "type": "Root Data Element"}, "self": {"href": "/mdr/sendig/dart-1-1/datasets/PY/variables/PYRESLOC", "title": "Result Location of Finding", "type": "SDTM Dataset Variable"}}, "core": "Perm", "description": "Location where the result was observed, if collected. Examples: Left Uterine Horn, Right Uterine Horn if the test is Number of Implantations.", "label": "Result Location of Finding", "name": "PYRESLOC", "ordinal": "13", "role": "Result Qualifier", "simpleDatatype": "Char"}, {"_links": {"codelist": [{"href": "/mdr/root/ct/sendct/codelists/C66789", "title": "Version-agnostic anchor resource for codelist C66789", "type": "Root Value Domain"}], "modelClassVariable": {"href": "/mdr/sdtm/1-6/classes/Findings/variables/--STAT", "title": "Completion Status", "type": "Class Variable"}, "parentDataset": {"href": "/mdr/sendig/dart-1-1/datasets/PY", "title": "Nonclinical Pregnancy Results", "type": "SDTM Dataset"}, "parentProduct": {"href": "/mdr/sendig/dart-1-1", "title": "Standard for Exchange of Nonclinical Data Implementation Guide: Developmental and Reproductive Toxicology Version 1.1", "type": "Implementation Guide"}, "rootItem": {"href": "/mdr/root/sendig/datasets/PY/variables/PYSTAT", "title": "Version-agnostic anchor resource for SENDIG variable PY.PYSTAT", "type": "Root Data Element"}, "self": {"href": "/mdr/sendig/dart-1-1/datasets/PY/variables/PYSTAT", "title": "Completion Status", "type": "SDTM Dataset Variable"}}, "core": "Perm", "description": "Used to indicate when a test or examination was not done or a result is missing. Should be null if a result exists in PYORRES.", "label": "Completion Status", "name": "PYSTAT", "ordinal": "14", "role": "Record Qualifier", "simpleDatatype": "Char"}, {"_links": {"modelClassVariable": {"href": "/mdr/sdtm/1-6/classes/Findings/variables/--REASND", "title": "Reason Not Done", "type": "Class Variable"}, "parentDataset": {"href": "/mdr/sendig/dart-1-1/datasets/PY", "title": "Nonclinical Pregnancy Results", "type": "SDTM Dataset"}, "parentProduct": {"href": "/mdr/sendig/dart-1-1", "title": "Standard for Exchange of Nonclinical Data Implementation Guide: Developmental and Reproductive Toxicology Version 1.1", "type": "Implementation Guide"}, "rootItem": {"href": "/mdr/root/sendig/datasets/PY/variables/PYREASND", "title": "Version-agnostic anchor resource for SENDIG variable PY.PYREASND", "type": "Root Data Element"}, "self": {"href": "/mdr/sendig/dart-1-1/datasets/PY/variables/PYREASND", "title": "Reason Not Done", "type": "SDTM Dataset Variable"}}, "core": "Perm", "description": "Describes why PYSTAT is NOT DONE. Use only in conjunction with PYSTAT when value is NOT DONE.", "label": "Reason Not Done", "name": "PYREASND", "ordinal": "15", "role": "Record Qualifier", "simpleDatatype": "Char"}, {"_links": {"modelClassVariable": {"href": "/mdr/sdtm/1-6/classes/Findings/variables/--METHOD", "title": "Method of Test or Examination", "type": "Class Variable"}, "parentDataset": {"href": "/mdr/sendig/dart-1-1/datasets/PY", "title": "Nonclinical Pregnancy Results", "type": "SDTM Dataset"}, "parentProduct": {"href": "/mdr/sendig/dart-1-1", "title": "Standard for Exchange of Nonclinical Data Implementation Guide: Developmental and Reproductive Toxicology Version 1.1", "type": "Implementation Guide"}, "rootItem": {"href": "/mdr/root/sendig/datasets/PY/variables/PYMETHOD", "title": "Version-agnostic anchor resource for SENDIG variable PY.PYMETHOD", "type": "Root Data Element"}, "self": {"href": "/mdr/sendig/dart-1-1/datasets/PY/variables/PYMETHOD", "title": "Method of Test or Examination", "type": "SDTM Dataset Variable"}}, "core": "Perm", "description": "Method of test or examination. Example: Ammonium Sulfide Stain", "label": "Method of Test or Examination", "name": "PYMETHOD", "ordinal": "16", "role": "Record Qualifier", "simpleDatatype": "Char"}, {"_links": {"codelist": [{"href": "/mdr/root/ct/sendct/codelists/C66742", "title": "Version-agnostic anchor resource for codelist C66742", "type": "Root Value Domain"}], "modelClassVariable": {"href": "/mdr/sdtm/1-6/classes/Findings/variables/--EXCLFL", "title": "Exclude from Statistics", "type": "Class Variable"}, "parentDataset": {"href": "/mdr/sendig/dart-1-1/datasets/PY", "title": "Nonclinical Pregnancy Results", "type": "SDTM Dataset"}, "parentProduct": {"href": "/mdr/sendig/dart-1-1", "title": "Standard for Exchange of Nonclinical Data Implementation Guide: Developmental and Reproductive Toxicology Version 1.1", "type": "Implementation Guide"}, "rootItem": {"href": "/mdr/root/sendig/datasets/PY/variables/PYEXCLFL", "title": "Version-agnostic anchor resource for SENDIG variable PY.PYEXCLFL", "type": "Root Data Element"}, "self": {"href": "/mdr/sendig/dart-1-1/datasets/PY/variables/PYEXCLFL", "title": "Exclusion Flag", "type": "SDTM Dataset Variable"}}, "core": "Perm", "description": "Y if the result should be excluded from all calculations, otherwise null. PYEXCLFL should not be used when PYSTAT is NOT DONE.", "label": "Exclusion Flag", "name": "PYEXCLFL", "ordinal": "17", "role": "Record Qualifier", "simpleDatatype": "Char"}, {"_links": {"modelClassVariable": {"href": "/mdr/sdtm/1-6/classes/Findings/variables/--REASEX", "title": "Reason for Exclusion from Statistics", "type": "Class Variable"}, "parentDataset": {"href": "/mdr/sendig/dart-1-1/datasets/PY", "title": "Nonclinical Pregnancy Results", "type": "SDTM Dataset"}, "parentProduct": {"href": "/mdr/sendig/dart-1-1", "title": "Standard for Exchange of Nonclinical Data Implementation Guide: Developmental and Reproductive Toxicology Version 1.1", "type": "Implementation Guide"}, "rootItem": {"href": "/mdr/root/sendig/datasets/PY/variables/PYREASEX", "title": "Version-agnostic anchor resource for SENDIG variable PY.PYREASEX", "type": "Root Data Element"}, "self": {"href": "/mdr/sendig/dart-1-1/datasets/PY/variables/PYREASEX", "title": "Reason for Exclusion", "type": "SDTM Dataset Variable"}}, "core": "Perm", "description": "The reason the result should be excluded from all calculations. Used in conjunction with PYEXCLFL when its value is Y.", "label": "Reason for Exclusion", "name": "PYREASEX", "ordinal": "18", "role": "Record Qualifier", "simpleDatatype": "Char"}, {"_links": {"codelist": [{"href": "/mdr/root/ct/sendct/codelists/C124321", "title": "Version-agnostic anchor resource for codelist C124321", "type": "Root Value Domain"}], "modelClassVariable": {"href": "/mdr/sdtm/1-6/classes/GeneralObservations/variables/RPHASE", "title": "Repro Phase", "type": "Class Variable"}, "parentDataset": {"href": "/mdr/sendig/dart-1-1/datasets/PY", "title": "Nonclinical Pregnancy Results", "type": "SDTM Dataset"}, "parentProduct": {"href": "/mdr/sendig/dart-1-1", "title": "Standard for Exchange of Nonclinical Data Implementation Guide: Developmental and Reproductive Toxicology Version 1.1", "type": "Implementation Guide"}, "rootItem": {"href": "/mdr/root/sendig/datasets/PY/variables/RPHASE", "title": "Version-agnostic anchor resource for SENDIG variable PY.RPHASE", "type": "Root Data Element"}, "self": {"href": "/mdr/sendig/dart-1-1/datasets/PY/variables/RPHASE", "title": "Repro Phase", "type": "SDTM Dataset Variable"}}, "core": "Exp", "description": "Name of the Reproductive Phase associated with date/time of the observation. RPHASE is required when any Repro Phase timing variable is used.", "label": "Repro Phase", "name": "RPHASE", "ordinal": "19", "role": "Timing", "simpleDatatype": "Char"}, {"_links": {"modelClassVariable": {"href": "/mdr/sdtm/1-6/classes/GeneralObservations/variables/RPPLDY", "title": "Planned Repro Phase Day of Observation", "type": "Class Variable"}, "parentDataset": {"href": "/mdr/sendig/dart-1-1/datasets/PY", "title": "Nonclinical Pregnancy Results", "type": "SDTM Dataset"}, "parentProduct": {"href": "/mdr/sendig/dart-1-1", "title": "Standard for Exchange of Nonclinical Data Implementation Guide: Developmental and Reproductive Toxicology Version 1.1", "type": "Implementation Guide"}, "rootItem": {"href": "/mdr/root/sendig/datasets/PY/variables/RPPLDY", "title": "Version-agnostic anchor resource for SENDIG variable PY.RPPLDY", "type": "Root Data Element"}, "self": {"href": "/mdr/sendig/dart-1-1/datasets/PY/variables/RPPLDY", "title": "Planned Repro Phase Day", "type": "SDTM Dataset Variable"}}, "core": "Exp", "description": "Planned day within the Reproductive Phase on which the observation was scheduled to occur. Used in conjunction with RPHASE. Should be an integer.", "label": "Planned Repro Phase Day", "name": "RPPLDY", "ordinal": "20", "role": "Timing", "simpleDatatype": "Num"}, {"_links": {"modelClassVariable": {"href": "/mdr/sdtm/1-6/classes/GeneralObservations/variables/--DTC", "title": "Date/Time of Collection", "type": "Class Variable"}, "parentDataset": {"href": "/mdr/sendig/dart-1-1/datasets/PY", "title": "Nonclinical Pregnancy Results", "type": "SDTM Dataset"}, "parentProduct": {"href": "/mdr/sendig/dart-1-1", "title": "Standard for Exchange of Nonclinical Data Implementation Guide: Developmental and Reproductive Toxicology Version 1.1", "type": "Implementation Guide"}, "rootItem": {"href": "/mdr/root/sendig/datasets/PY/variables/PYDTC", "title": "Version-agnostic anchor resource for SENDIG variable PY.PYDTC", "type": "Root Data Element"}, "self": {"href": "/mdr/sendig/dart-1-1/datasets/PY/variables/PYDTC", "title": "Date/Time", "type": "SDTM Dataset Variable"}}, "core": "Exp", "describedValueDomain": "ISO 8601", "description": "Collection date and time of the observation represented in ISO 8601 character format.", "label": "Date/Time", "name": "PYDTC", "ordinal": "21", "role": "Timing", "simpleDatatype": "Char"}, {"_links": {"modelClassVariable": {"href": "/mdr/sdtm/1-6/classes/GeneralObservations/variables/--DY", "title": "Study Day of Visit/Collection/Exam", "type": "Class Variable"}, "parentDataset": {"href": "/mdr/sendig/dart-1-1/datasets/PY", "title": "Nonclinical Pregnancy Results", "type": "SDTM Dataset"}, "parentProduct": {"href": "/mdr/sendig/dart-1-1", "title": "Standard for Exchange of Nonclinical Data Implementation Guide: Developmental and Reproductive Toxicology Version 1.1", "type": "Implementation Guide"}, "rootItem": {"href": "/mdr/root/sendig/datasets/PY/variables/PYDY", "title": "Version-agnostic anchor resource for SENDIG variable PY.PYDY", "type": "Root Data Element"}, "self": {"href": "/mdr/sendig/dart-1-1/datasets/PY/variables/PYDY", "title": "Study Day", "type": "SDTM Dataset Variable"}}, "core": "Perm", "description": "Study day of the observation expressed in integer days relative to the protocol-defined RFSTDTC.", "label": "Study Day", "name": "PYDY", "ordinal": "22", "role": "Timing", "simpleDatatype": "Num"}, {"_links": {"modelClassVariable": {"href": "/mdr/sdtm/1-6/classes/GeneralObservations/variables/--RPDY", "title": "Actual Repro Phase Day of Observation", "type": "Class Variable"}, "parentDataset": {"href": "/mdr/sendig/dart-1-1/datasets/PY", "title": "Nonclinical Pregnancy Results", "type": "SDTM Dataset"}, "parentProduct": {"href": "/mdr/sendig/dart-1-1", "title": "Standard for Exchange of Nonclinical Data Implementation Guide: Developmental and Reproductive Toxicology Version 1.1", "type": "Implementation Guide"}, "rootItem": {"href": "/mdr/root/sendig/datasets/PY/variables/PYRPDY", "title": "Version-agnostic anchor resource for SENDIG variable PY.PYRPDY", "type": "Root Data Element"}, "self": {"href": "/mdr/sendig/dart-1-1/datasets/PY/variables/PYRPDY", "title": "Actual Repro Phase Day", "type": "SDTM Dataset Variable"}}, "core": "Exp", "description": "Actual day within the Reproductive Phase on which the observation occurred. Used in conjunction with RPHASE. Should be an integer.", "label": "Actual Repro Phase Day", "name": "PYRPDY", "ordinal": "23", "role": "Timing", "simpleDatatype": "Num"}], "description": "Pregnancy results of female nonclinical subjects. (Source: CDISC Controlled Terminology, SDOMAIN, C102678, 2018-06-29)", "label": "Nonclinical Pregnancy Results", "name": "PY", "ordinal": "3"}, {"_links": {"parentClass": {"href": "/mdr/sendig/dart-1-1/classes/Findings", "title": "Findings Observation Class", "type": "Class"}, "parentProduct": {"href": "/mdr/sendig/dart-1-1", "title": "Standard for Exchange of Nonclinical Data Implementation Guide: Developmental and Reproductive Toxicology Version 1.1", "type": "Implementation Guide"}, "self": {"href": "/mdr/sendig/dart-1-1/datasets/FM", "title": "Fetal Measurements", "type": "SDTM Dataset"}}, "datasetStructure": "One record per finding per fetus per subject per test", "datasetVariables": [{"_links": {"modelClassVariable": {"href": "/mdr/sdtm/1-6/classes/GeneralObservations/variables/STUDYID", "title": "Study Identifier", "type": "Class Variable"}, "parentDataset": {"href": "/mdr/sendig/dart-1-1/datasets/FM", "title": "Fetal Measurements", "type": "SDTM Dataset"}, "parentProduct": {"href": "/mdr/sendig/dart-1-1", "title": "Standard for Exchange of Nonclinical Data Implementation Guide: Developmental and Reproductive Toxicology Version 1.1", "type": "Implementation Guide"}, "rootItem": {"href": "/mdr/root/sendig/datasets/FM/variables/STUDYID", "title": "Version-agnostic anchor resource for SENDIG variable FM.STUDYID", "type": "Root Data Element"}, "self": {"href": "/mdr/sendig/dart-1-1/datasets/FM/variables/STUDYID", "title": "Study Identifier", "type": "SDTM Dataset Variable"}}, "core": "Req", "description": "Unique identifier for a study within the submission.", "label": "Study Identifier", "name": "STUDYID", "ordinal": "1", "role": "Identifier", "simpleDatatype": "Char"}, {"_links": {"modelClassVariable": {"href": "/mdr/sdtm/1-6/classes/GeneralObservations/variables/DOMAIN", "title": "Domain Abbreviation", "type": "Class Variable"}, "parentDataset": {"href": "/mdr/sendig/dart-1-1/datasets/FM", "title": "Fetal Measurements", "type": "SDTM Dataset"}, "parentProduct": {"href": "/mdr/sendig/dart-1-1", "title": "Standard for Exchange of Nonclinical Data Implementation Guide: Developmental and Reproductive Toxicology Version 1.1", "type": "Implementation Guide"}, "rootItem": {"href": "/mdr/root/sendig/datasets/FM/variables/DOMAIN", "title": "Version-agnostic anchor resource for SENDIG variable FM.DOMAIN", "type": "Root Data Element"}, "self": {"href": "/mdr/sendig/dart-1-1/datasets/FM/variables/DOMAIN", "title": "Domain Abbreviation", "type": "SDTM Dataset Variable"}}, "core": "Req", "description": "Two-character code for the domain.", "label": "Domain Abbreviation", "name": "DOMAIN", "ordinal": "2", "role": "Identifier", "simpleDatatype": "Char", "valueList": ["FM"]}, {"_links": {"modelClassVariable": {"href": "/mdr/sdtm/1-6/classes/GeneralObservations/variables/USUBJID", "title": "Unique Subject Identifier", "type": "Class Variable"}, "parentDataset": {"href": "/mdr/sendig/dart-1-1/datasets/FM", "title": "Fetal Measurements", "type": "SDTM Dataset"}, "parentProduct": {"href": "/mdr/sendig/dart-1-1", "title": "Standard for Exchange of Nonclinical Data Implementation Guide: Developmental and Reproductive Toxicology Version 1.1", "type": "Implementation Guide"}, "rootItem": {"href": "/mdr/root/sendig/datasets/FM/variables/USUBJID", "title": "Version-agnostic anchor resource for SENDIG variable FM.USUBJID", "type": "Root Data Element"}, "self": {"href": "/mdr/sendig/dart-1-1/datasets/FM/variables/USUBJID", "title": "Unique Subject Identifier", "type": "SDTM Dataset Variable"}}, "core": "Req", "description": "Identifier used to uniquely identify a subject across all studies for all applications or submissions involving the product.", "label": "Unique Subject Identifier", "name": "USUBJID", "ordinal": "3", "role": "Identifier", "simpleDatatype": "Char"}, {"_links": {"modelClassVariable": {"href": "/mdr/sdtm/1-6/classes/GeneralObservations/variables/FETUSID", "title": "Fetus Identifier", "type": "Class Variable"}, "parentDataset": {"href": "/mdr/sendig/dart-1-1/datasets/FM", "title": "Fetal Measurements", "type": "SDTM Dataset"}, "parentProduct": {"href": "/mdr/sendig/dart-1-1", "title": "Standard for Exchange of Nonclinical Data Implementation Guide: Developmental and Reproductive Toxicology Version 1.1", "type": "Implementation Guide"}, "rootItem": {"href": "/mdr/root/sendig/datasets/FM/variables/FETUSID", "title": "Version-agnostic anchor resource for SENDIG variable FM.FETUSID", "type": "Root Data Element"}, "self": {"href": "/mdr/sendig/dart-1-1/datasets/FM/variables/FETUSID", "title": "Unique Fetus Identifier", "type": "SDTM Dataset Variable"}}, "core": "Exp", "description": "Identifier used to identify a fetus from a maternal subject for prenatal evaluations. Unique per USUBJID across a study.", "label": "Unique Fetus Identifier", "name": "FETUSID", "ordinal": "4", "role": "Identifier", "simpleDatatype": "Char"}, {"_links": {"modelClassVariable": {"href": "/mdr/sdtm/1-6/classes/GeneralObservations/variables/--SEQ", "title": "Sequence Number", "type": "Class Variable"}, "parentDataset": {"href": "/mdr/sendig/dart-1-1/datasets/FM", "title": "Fetal Measurements", "type": "SDTM Dataset"}, "parentProduct": {"href": "/mdr/sendig/dart-1-1", "title": "Standard for Exchange of Nonclinical Data Implementation Guide: Developmental and Reproductive Toxicology Version 1.1", "type": "Implementation Guide"}, "rootItem": {"href": "/mdr/root/sendig/datasets/FM/variables/FMSEQ", "title": "Version-agnostic anchor resource for SENDIG variable FM.FMSEQ", "type": "Root Data Element"}, "self": {"href": "/mdr/sendig/dart-1-1/datasets/FM/variables/FMSEQ", "title": "Sequence Number", "type": "SDTM Dataset Variable"}}, "core": "Req", "description": "Sequence number given to ensure uniqueness of subject records within a domain. May be any valid number.", "label": "Sequence Number", "name": "FMSEQ", "ordinal": "5", "role": "Identifier", "simpleDatatype": "Num"}, {"_links": {"modelClassVariable": {"href": "/mdr/sdtm/1-6/classes/GeneralObservations/variables/--GRPID", "title": "Group ID", "type": "Class Variable"}, "parentDataset": {"href": "/mdr/sendig/dart-1-1/datasets/FM", "title": "Fetal Measurements", "type": "SDTM Dataset"}, "parentProduct": {"href": "/mdr/sendig/dart-1-1", "title": "Standard for Exchange of Nonclinical Data Implementation Guide: Developmental and Reproductive Toxicology Version 1.1", "type": "Implementation Guide"}, "rootItem": {"href": "/mdr/root/sendig/datasets/FM/variables/FMGRPID", "title": "Version-agnostic anchor resource for SENDIG variable FM.FMGRPID", "type": "Root Data Element"}, "self": {"href": "/mdr/sendig/dart-1-1/datasets/FM/variables/FMGRPID", "title": "Group Identifier", "type": "SDTM Dataset Variable"}}, "core": "Perm", "description": "Optional group identifier, used to link together a block of related records within a subject in a domain. This is not the treatment group number.", "label": "Group Identifier", "name": "FMGRPID", "ordinal": "6", "role": "Identifier", "simpleDatatype": "Char"}, {"_links": {"codelist": [{"href": "/mdr/root/ct/sendct/codelists/C124311", "title": "Version-agnostic anchor resource for codelist C124311", "type": "Root Value Domain"}], "modelClassVariable": {"href": "/mdr/sdtm/1-6/classes/Findings/variables/--TESTCD", "title": "Short Name of Measurement, Test or Examination", "type": "Class Variable"}, "parentDataset": {"href": "/mdr/sendig/dart-1-1/datasets/FM", "title": "Fetal Measurements", "type": "SDTM Dataset"}, "parentProduct": {"href": "/mdr/sendig/dart-1-1", "title": "Standard for Exchange of Nonclinical Data Implementation Guide: Developmental and Reproductive Toxicology Version 1.1", "type": "Implementation Guide"}, "rootItem": {"href": "/mdr/root/sendig/datasets/FM/variables/FMTESTCD", "title": "Version-agnostic anchor resource for SENDIG variable FM.FMTESTCD", "type": "Root Data Element"}, "self": {"href": "/mdr/sendig/dart-1-1/datasets/FM/variables/FMTESTCD", "title": "Test Short Name", "type": "SDTM Dataset Variable"}}, "core": "Req", "description": "Short name of the test described in FMTEST. The value in FMTESTCD cannot be longer than 8 characters, nor can it start with a number (e.g. \"1TEST\"). FMTESTCD cannot contain characters other than letters, numbers, or underscores.", "label": "Test Short Name", "name": "FMTESTCD", "ordinal": "7", "role": "Topic", "simpleDatatype": "Char"}, {"_links": {"codelist": [{"href": "/mdr/root/ct/sendct/codelists/C124312", "title": "Version-agnostic anchor resource for codelist C124312", "type": "Root Value Domain"}], "modelClassVariable": {"href": "/mdr/sdtm/1-6/classes/Findings/variables/--TEST", "title": "Name of Measurement, Test or Examination", "type": "Class Variable"}, "parentDataset": {"href": "/mdr/sendig/dart-1-1/datasets/FM", "title": "Fetal Measurements", "type": "SDTM Dataset"}, "parentProduct": {"href": "/mdr/sendig/dart-1-1", "title": "Standard for Exchange of Nonclinical Data Implementation Guide: Developmental and Reproductive Toxicology Version 1.1", "type": "Implementation Guide"}, "rootItem": {"href": "/mdr/root/sendig/datasets/FM/variables/FMTEST", "title": "Version-agnostic anchor resource for SENDIG variable FM.FMTEST", "type": "Root Data Element"}, "self": {"href": "/mdr/sendig/dart-1-1/datasets/FM/variables/FMTEST", "title": "Fetal Measurement Name", "type": "SDTM Dataset Variable"}}, "core": "Req", "description": "Long name for FMTESTCD. The value in FMTEST cannot be longer than 40 characters. Example: Body Weight", "label": "Fetal Measurement Name", "name": "FMTEST", "ordinal": "8", "role": "Synonym Qualifier", "simpleDatatype": "Char"}, {"_links": {"modelClassVariable": {"href": "/mdr/sdtm/1-6/classes/Findings/variables/--ORRES", "title": "Result or Finding in Original Units", "type": "Class Variable"}, "parentDataset": {"href": "/mdr/sendig/dart-1-1/datasets/FM", "title": "Fetal Measurements", "type": "SDTM Dataset"}, "parentProduct": {"href": "/mdr/sendig/dart-1-1", "title": "Standard for Exchange of Nonclinical Data Implementation Guide: Developmental and Reproductive Toxicology Version 1.1", "type": "Implementation Guide"}, "rootItem": {"href": "/mdr/root/sendig/datasets/FM/variables/FMORRES", "title": "Version-agnostic anchor resource for SENDIG variable FM.FMORRES", "type": "Root Data Element"}, "self": {"href": "/mdr/sendig/dart-1-1/datasets/FM/variables/FMORRES", "title": "Result or Findings as Collected", "type": "SDTM Dataset Variable"}}, "core": "Exp", "description": "Result of the finding or measurement as originally received or collected. Should be null if examination or measurement was not done.", "label": "Result or Findings as Collected", "name": "FMORRES", "ordinal": "9", "role": "Result Qualifier", "simpleDatatype": "Char"}, {"_links": {"codelist": [{"href": "/mdr/root/ct/sendct/codelists/C71620", "title": "Version-agnostic anchor resource for codelist C71620", "type": "Root Value Domain"}], "modelClassVariable": {"href": "/mdr/sdtm/1-6/classes/Findings/variables/--ORRESU", "title": "Original Units", "type": "Class Variable"}, "parentDataset": {"href": "/mdr/sendig/dart-1-1/datasets/FM", "title": "Fetal Measurements", "type": "SDTM Dataset"}, "parentProduct": {"href": "/mdr/sendig/dart-1-1", "title": "Standard for Exchange of Nonclinical Data Implementation Guide: Developmental and Reproductive Toxicology Version 1.1", "type": "Implementation Guide"}, "rootItem": {"href": "/mdr/root/sendig/datasets/FM/variables/FMORRESU", "title": "Version-agnostic anchor resource for SENDIG variable FM.FMORRESU", "type": "Root Data Element"}, "self": {"href": "/mdr/sendig/dart-1-1/datasets/FM/variables/FMORRESU", "title": "Unit of the Original Result", "type": "SDTM Dataset Variable"}}, "core": "Exp", "description": "The unit of the original result if applicable for a numeric result. The unit of the original result should be mapped to a synonymous unit on the Controlled Terminology list.", "label": "Unit of the Original Result", "name": "FMORRESU", "ordinal": "10", "role": "Variable Qualifier", "simpleDatatype": "Char"}, {"_links": {"modelClassVariable": {"href": "/mdr/sdtm/1-6/classes/Findings/variables/--STRESC", "title": "Result or Finding in Standard Format", "type": "Class Variable"}, "parentDataset": {"href": "/mdr/sendig/dart-1-1/datasets/FM", "title": "Fetal Measurements", "type": "SDTM Dataset"}, "parentProduct": {"href": "/mdr/sendig/dart-1-1", "title": "Standard for Exchange of Nonclinical Data Implementation Guide: Developmental and Reproductive Toxicology Version 1.1", "type": "Implementation Guide"}, "rootItem": {"href": "/mdr/root/sendig/datasets/FM/variables/FMSTRESC", "title": "Version-agnostic anchor resource for SENDIG variable FM.FMSTRESC", "type": "Root Data Element"}, "self": {"href": "/mdr/sendig/dart-1-1/datasets/FM/variables/FMSTRESC", "title": "Standardized Results in Character Format", "type": "SDTM Dataset Variable"}}, "core": "Exp", "description": "Contains the result value for all findings, copied or derived from FMORRES in a standard format or standard unit. If results are numeric, they should also be stored in numeric format in FMSTRESN.", "label": "Standardized Results in Character Format", "name": "FMSTRESC", "ordinal": "11", "role": "Result Qualifier", "simpleDatatype": "Char"}, {"_links": {"modelClassVariable": {"href": "/mdr/sdtm/1-6/classes/Findings/variables/--STRESN", "title": "Numeric Result/Finding in Standard Units", "type": "Class Variable"}, "parentDataset": {"href": "/mdr/sendig/dart-1-1/datasets/FM", "title": "Fetal Measurements", "type": "SDTM Dataset"}, "parentProduct": {"href": "/mdr/sendig/dart-1-1", "title": "Standard for Exchange of Nonclinical Data Implementation Guide: Developmental and Reproductive Toxicology Version 1.1", "type": "Implementation Guide"}, "rootItem": {"href": "/mdr/root/sendig/datasets/FM/variables/FMSTRESN", "title": "Version-agnostic anchor resource for SENDIG variable FM.FMSTRESN", "type": "Root Data Element"}, "self": {"href": "/mdr/sendig/dart-1-1/datasets/FM/variables/FMSTRESN", "title": "Standardized Results in Numeric Format", "type": "SDTM Dataset Variable"}}, "core": "Exp", "description": "Used for results or findings in standard format; contains the numeric form of FMSTRESC. FMSTRESN should store all numeric test results or findings.", "label": "Standardized Results in Numeric Format", "name": "FMSTRESN", "ordinal": "12", "role": "Result Qualifier", "simpleDatatype": "Num"}, {"_links": {"codelist": [{"href": "/mdr/root/ct/sendct/codelists/C71620", "title": "Version-agnostic anchor resource for codelist C71620", "type": "Root Value Domain"}], "modelClassVariable": {"href": "/mdr/sdtm/1-6/classes/Findings/variables/--STRESU", "title": "Standard Units", "type": "Class Variable"}, "parentDataset": {"href": "/mdr/sendig/dart-1-1/datasets/FM", "title": "Fetal Measurements", "type": "SDTM Dataset"}, "parentProduct": {"href": "/mdr/sendig/dart-1-1", "title": "Standard for Exchange of Nonclinical Data Implementation Guide: Developmental and Reproductive Toxicology Version 1.1", "type": "Implementation Guide"}, "rootItem": {"href": "/mdr/root/sendig/datasets/FM/variables/FMSTRESU", "title": "Version-agnostic anchor resource for SENDIG variable FM.FMSTRESU", "type": "Root Data Element"}, "self": {"href": "/mdr/sendig/dart-1-1/datasets/FM/variables/FMSTRESU", "title": "Unit of the Standardized Result", "type": "SDTM Dataset Variable"}}, "core": "Exp", "description": "Standardized unit used for FMSTRESC or FMSTRESN.", "label": "Unit of the Standardized Result", "name": "FMSTRESU", "ordinal": "13", "role": "Variable Qualifier", "simpleDatatype": "Char"}, {"_links": {"codelist": [{"href": "/mdr/root/ct/sendct/codelists/C66789", "title": "Version-agnostic anchor resource for codelist C66789", "type": "Root Value Domain"}], "modelClassVariable": {"href": "/mdr/sdtm/1-6/classes/Findings/variables/--STAT", "title": "Completion Status", "type": "Class Variable"}, "parentDataset": {"href": "/mdr/sendig/dart-1-1/datasets/FM", "title": "Fetal Measurements", "type": "SDTM Dataset"}, "parentProduct": {"href": "/mdr/sendig/dart-1-1", "title": "Standard for Exchange of Nonclinical Data Implementation Guide: Developmental and Reproductive Toxicology Version 1.1", "type": "Implementation Guide"}, "rootItem": {"href": "/mdr/root/sendig/datasets/FM/variables/FMSTAT", "title": "Version-agnostic anchor resource for SENDIG variable FM.FMSTAT", "type": "Root Data Element"}, "self": {"href": "/mdr/sendig/dart-1-1/datasets/FM/variables/FMSTAT", "title": "Completion Status", "type": "SDTM Dataset Variable"}}, "core": "Perm", "description": "Used to indicate when a test or examination was not done or a result is missing. Should be null if a result exists in FMORRES.", "label": "Completion Status", "name": "FMSTAT", "ordinal": "14", "role": "Record Qualifier", "simpleDatatype": "Char"}, {"_links": {"modelClassVariable": {"href": "/mdr/sdtm/1-6/classes/Findings/variables/--REASND", "title": "Reason Not Done", "type": "Class Variable"}, "parentDataset": {"href": "/mdr/sendig/dart-1-1/datasets/FM", "title": "Fetal Measurements", "type": "SDTM Dataset"}, "parentProduct": {"href": "/mdr/sendig/dart-1-1", "title": "Standard for Exchange of Nonclinical Data Implementation Guide: Developmental and Reproductive Toxicology Version 1.1", "type": "Implementation Guide"}, "rootItem": {"href": "/mdr/root/sendig/datasets/FM/variables/FMREASND", "title": "Version-agnostic anchor resource for SENDIG variable FM.FMREASND", "type": "Root Data Element"}, "self": {"href": "/mdr/sendig/dart-1-1/datasets/FM/variables/FMREASND", "title": "Reason Not Done", "type": "SDTM Dataset Variable"}}, "core": "Perm", "description": "Describes why FMSTAT is NOT DONE. Use only in conjunction with FMSTAT when value is NOT DONE.", "label": "Reason Not Done", "name": "FMREASND", "ordinal": "15", "role": "Record Qualifier", "simpleDatatype": "Char"}, {"_links": {"modelClassVariable": {"href": "/mdr/sdtm/1-6/classes/Findings/variables/--ANTREG", "title": "Anatomical Region", "type": "Class Variable"}, "parentDataset": {"href": "/mdr/sendig/dart-1-1/datasets/FM", "title": "Fetal Measurements", "type": "SDTM Dataset"}, "parentProduct": {"href": "/mdr/sendig/dart-1-1", "title": "Standard for Exchange of Nonclinical Data Implementation Guide: Developmental and Reproductive Toxicology Version 1.1", "type": "Implementation Guide"}, "rootItem": {"href": "/mdr/root/sendig/datasets/FM/variables/FMANTREG", "title": "Version-agnostic anchor resource for SENDIG variable FM.FMANTREG", "type": "Root Data Element"}, "self": {"href": "/mdr/sendig/dart-1-1/datasets/FM/variables/FMANTREG", "title": "Anatomical Region", "type": "SDTM Dataset Variable"}}, "core": "Perm", "description": "Defines the specific anatomical or biological region of a tissue, organ specimen or the region from which the specimen is obtained, as defined in the protocol, such as a section or part of what is described in the FMLOC variable. Examples: CORTEX, MEDULLA, MUCOSA", "label": "Anatomical Region", "name": "FMANTREG", "ordinal": "16", "role": "Variable Qualifier", "simpleDatatype": "Char"}, {"_links": {"codelist": [{"href": "/mdr/root/ct/sendct/codelists/C74456", "title": "Version-agnostic anchor resource for codelist C74456", "type": "Root Value Domain"}], "modelClassVariable": {"href": "/mdr/sdtm/1-6/classes/Findings/variables/--LOC", "title": "Location Used for the Measurement", "type": "Class Variable"}, "parentDataset": {"href": "/mdr/sendig/dart-1-1/datasets/FM", "title": "Fetal Measurements", "type": "SDTM Dataset"}, "parentProduct": {"href": "/mdr/sendig/dart-1-1", "title": "Standard for Exchange of Nonclinical Data Implementation Guide: Developmental and Reproductive Toxicology Version 1.1", "type": "Implementation Guide"}, "rootItem": {"href": "/mdr/root/sendig/datasets/FM/variables/FMLOC", "title": "Version-agnostic anchor resource for SENDIG variable FM.FMLOC", "type": "Root Data Element"}, "self": {"href": "/mdr/sendig/dart-1-1/datasets/FM/variables/FMLOC", "title": "Location Used for the Measurement", "type": "SDTM Dataset Variable"}}, "core": "Exp", "description": "Anatomical location of the fetus relevant to the collection of the measurement. The protocol or procedural location targeted for examination. Examples: CAUDAL VERTEBRA, BODY", "label": "Location Used for the Measurement", "name": "FMLOC", "ordinal": "17", "role": "Record Qualifier", "simpleDatatype": "Char"}, {"_links": {"codelist": [{"href": "/mdr/root/ct/sendct/codelists/C990