{
  "name": "Test-Case 1 CT 2020-01-01",
  "label": "Test-Case 1 Controlled Terminology Package 1 Effective 2020-01-01",
  "description": "Test-Case 1: Only 'Codelist 001' without another codelist. -> import as code_submission_value; no inconsistency.",
  "source": "Test source",
  "effectiveDate": "2020-01-01",
  "registrationStatus": "Final",
  "version": "2020-01-01",
  "_links": {
    "self": {
      "href": "/mdr/ct/packages/case1-2020-01-01",
      "title": "Test-Case 1 Controlled Terminology Package 2 Effective 2020-01-01",
      "type": "Terminology"
    },
    "priorVersion": {
      "href": "/mdr/ct/packages/case1-2019-12-01",
      "title": "Test-Case 1 Controlled Terminology Package 1 Effective 2019-12-01",
      "type": "Terminology"
    }
  },
  "codelists": [
    {
      "conceptId": "C001",
      "extensible": "true",
      "name": "Codelist 001",
      "submissionValue": "SMN001",
      "definition": "Definition C001",
      "preferredTerm": "PT C001",
      "synonyms": [
        "Analysis Purpose"
      ],
      "terms": [
        {
          "conceptId": "T001",
          "submissionValue": "code-SMT001",
          "definition": "Definition T001",
          "preferredTerm": "PT T001",
          "synonyms": [
            "Synonym 1", "Synonym 2"
          ]
        }
      ]
    }
  ]
}