{
  "name": "Cat1 CT 2020-03-01",
  "label": "Cat1 Controlled Terminology Package 3 Effective 2020-03-01",
  "description": "a) there is an inconsistency in C002.definition due to cat2-2020-03-01. b) updates term T002",
  "source": "Cat1 source",
  "effectiveDate": "2020-03-01",
  "registrationStatus": "Final",
  "version": "2020-03-01",
  "_links": {
    "self": {
      "href": "/mdr/ct/packages/cat1-2020-03-01",
      "title": "Cat1 Controlled Terminology Package 3 Effective 2020-03-01",
      "type": "Terminology"
    },
    "priorVersion": {
      "href": "/mdr/ct/packages/cat1-2020-02-01",
      "title": "Cat1 Controlled Terminology Package 2 Effective 2020-02-01",
      "type": "Terminology"
    }
  },
  "codelists": [
    {
      "conceptId": "C003",
      "extensible": "true",
      "name": "Codelist 003 Code",
      "submissionValue": "SMC001",
      "definition": "Definition C001",
      "preferredTerm": "PT C001",
      "synonyms": [
        "Analysis Purpose"
      ],
      "terms": [
        {
          "conceptId": "T001",
          "submissionValue": "code-SMT001",
          "definition": "Definition T001",
          "preferredTerm": "PT T001",
          "synonyms": [
            "Synonym 1", "Synonym 2"
          ]
        },
        {
          "conceptId": "T002",
          "submissionValue": "code-SMT002",
          "definition": "Definition T002",
          "preferredTerm": "PT T002"
        }
      ]
    },
    {
      "conceptId": "C002",
      "extensible": "true",
      "name": "Codelist 002 Name",
      "submissionValue": "SMC001",
      "definition": "Updated Definition C001",
      "preferredTerm": "PT C001",
      "synonyms": [
        "Analysis Purpose"
      ],
      "terms": [
        {
          "conceptId": "T001",
          "submissionValue": "name-SMT001",
          "definition": "Definition T001",
          "preferredTerm": "PT T001",
          "synonyms": [
            "Synonym 1", "Synonym 2"
          ]
        },
        {
          "conceptId": "T002",
          "submissionValue": "name-SMT002",
          "definition": "Updated Definition T002",
          "preferredTerm": "PT T002"
        }
      ]
    }
  ]
}