{
  "name": "Cat1 CT 2020-02-01",
  "label": "Cat1 Controlled Terminology Package 2 Effective 2020-02-01",
  "description": "a) Updates the definition of codelist C02. b) Has a wrong date in priorVersion.title",
  "source": "Cat1 source",
  "effectiveDate": "2020-02-01",
  "registrationStatus": "Final",
  "version": "2020-02-01",
  "_links": {
    "self": {
      "href": "/mdr/ct/packages/cat1-2020-02-01",
      "title": "Cat1 Controlled Terminology Package 2 Effective 2020-02-01",
      "type": "Terminology"
    },
    "priorVersion": {
      "href": "/mdr/ct/packages/cat1-2020-01-01",
      "title": "Cat1 Controlled Terminology Package 1 Effective wrong-date",
      "type": "Terminology"
    }
  },
  "codelists": [
    {
      "conceptId": "C03",
      "extensible": "true",
      "name": "Codelist XX Code",
      "submissionValue": "SM C03",
      "definition": "Definition C03",
      "preferredTerm": "PT C03",
      "synonyms": [],
      "terms": [
        {
          "conceptId": "T01",
          "submissionValue": "code-T01",
          "definition": "Definition T01",
          "preferredTerm": "PT T01",
          "synonyms": [
            "Synonym 1", "Synonym 2"
          ]
        },
        {
          "conceptId": "T02",
          "submissionValue": "code-T02",
          "definition": "Definition T02",
          "preferredTerm": "PT T02"
        }
      ]
    },
    {
      "conceptId": "C02",
      "extensible": "true",
      "name": "Codelist XX Name",
      "submissionValue": "SM C02",
      "definition": "Updated Definition C02",
      "preferredTerm": "PT C02",
      "synonyms": [
        "Analysis Purpose"
      ],
      "terms": [
        {
          "conceptId": "T01",
          "submissionValue": "name-T01",
          "definition": "Definition T01",
          "preferredTerm": "PT T01",
          "synonyms": [
            "Synonym 1", "Synonym 2"
          ]
        },
        {
          "conceptId": "T02",
          "submissionValue": "name-T02",
          "definition": "Definition T02",
          "preferredTerm": "PT T02"
        }
      ]
    }
  ]
}