{
  "name": "Cat1 CT 2020-01-01",
  "label": "Cat1 Controlled Terminology Package 1 Effective 2020-01-01",
  "description": "Terms of codelist C02 are inconsistent (cf. cat2-2020-01-01)",
  "source": "Cat1 source",
  "effectiveDate": "2020-01-01",
  "registrationStatus": "Some Other Status",
  "version": "2020-01-01",
  "_links": {
    "self": {
      "href": "/mdr/ct/packages/cat1-2020-01-01",
      "title": "Cat1 Controlled Terminology Package 1 Effective 2020-01-01",
      "type": "Terminology"
    },
    "priorVersion": {
      "href": "/mdr/ct/packages/cat1-2019-12-01",
      "title": "Cat1 Controlled Terminology Package 0 Effective 2019-12-01",
      "type": "Terminology"
    }
  },
  "codelists": [
    {
      "conceptId": "C03",
      "extensible": "true",
      "name": "Codelist XX Code",
      "submissionValue": "SM C03",
      "definition": "Definition C03",
      "preferredTerm": "PT C03",
      "synonyms": [
        "Analysis Purpose"
      ],
      "terms": [
        {
          "conceptId": "T01",
          "submissionValue": "code-T01",
          "definition": "Definition T01",
          "preferredTerm": "PT T01",
          "synonyms": [
            "Synonym 1", "Synonym 2"
          ]
        },
        {
          "conceptId": "T02",
          "submissionValue": "code-T02",
          "definition": "Definition T02",
          "preferredTerm": "PT T02"
        }
      ]
    },
    {
      "conceptId": "C02",
      "extensible": "true",
      "name": "Codelist XX Name",
      "submissionValue": "SM C02",
      "definition": "Definition C02",
      "preferredTerm": "PT C02",
      "synonyms": [
        "Analysis Purpose"
      ],
      "terms": [
        {
          "conceptId": "T01",
          "submissionValue": "name-T01",
          "definition": "Definition T01",
          "preferredTerm": "PT T01",
          "synonyms": [
            "Synonym 1", "Synonym 2"
          ]
        },
        {
          "conceptId": "T02",
          "submissionValue": "name-T02",
          "definition": "Definition T02",
          "preferredTerm": "PT T02"
        }
      ]
    }
  ]
}