{
  "name": "Cat2 CT 2020-01-01",
  "label": "Cat2 Controlled Terminology Package 1 Effective 2020-01-01",
  "description": "Terms of codelist C02 are inconsistent (cf. Cat1-2020-01-01)",
  "source": "Cat2 source",
  "effectiveDate": "2020-01-01",
  "registrationStatus": "Final",
  "version": "2020-01-01",
  "_links": {
    "self": {
      "href": "/mdr/ct/packages/cat2-2020-01-01",
      "title": "Cat2 Controlled Terminology Package 1 Effective 2020-01-01",
      "type": "Terminology"
    },
    "priorVersion": {
      "href": "/mdr/ct/packages/cat2-2019-12-01",
      "title": "Cat2 Controlled Terminology Package 0 Effective 2019-12-01",
      "type": "Terminology"
    }
  },
  "codelists": [
    {
      "conceptId": "C01",
      "extensible": "TRUE",
      "name": "Codelist XX Code",
      "submissionValue": "SM C01",
      "definition": "Definition C01",
      "preferredTerm": "PT C01",
      "synonyms": [
        "Analysis Purpose"
      ],
      "terms": [
        {
          "conceptId": "T01",
          "submissionValue": "code-T01",
          "definition": "Definition T01",
          "preferredTerm": "PT T01",
          "synonyms": [
            "Synonym 1", "Synonym 2"
          ]
        }
      ]
    },
    {
      "conceptId": "C02",
      "extensible": "true",
      "name": "Codelist XX Name",
      "submissionValue": "SM C02",
      "definition": "Definition C02",
      "preferredTerm": "PT C02",
      "synonyms": [
        "Analysis Purpose"
      ],
      "terms": [
        {
          "conceptId": "T01",
          "submissionValue": "name-T01",
          "definition": "Definition T01",
          "preferredTerm": "PT T01",
          "synonyms": [
            "Synonym 1", "Synonym 2"
          ]
        }
      ]
    }
  ]
}