{
  "name": "Cat2 CT 2020-03-01",
  "label": "Cat2 Controlled Terminology Package 3 Effective 2020-03-01",
  "description": "a) Re-adds the codelists C001 and C002 as they were in package 'cat2-2020-01-01', but with the term inconsistency fixed, however Cat1-2020-02-01 updated the definition of codelist C002 -> inconsistency. b) updates term T002",
  "source": "Cat2 source",
  "effectiveDate": "2020-03-01",
  "registrationStatus": "Final",
  "version": "2020-03-01",
  "_links": {
    "self": {
      "href": "/mdr/ct/packages/cat2-2020-03-01",
      "title": "Cat2 Controlled Terminology Package 3 Effective 2020-03-01",
      "type": "Terminology"
    },
    "priorVersion": {
      "href": "/mdr/ct/packages/cat2-2020-02-01",
      "title": "Cat2 Controlled Terminology Package 2 Effective 2020-02-01",
      "type": "Terminology"
    }
  },
  "codelists": [
    {
      "conceptId": "C001",
      "extensible": "true",
      "name": "Codelist 001 Code",
      "submissionValue": "SMC001",
      "definition": "Definition C001",
      "preferredTerm": "PT C001",
      "synonyms": [
        "Analysis Purpose"
      ],
      "terms": [
        {
          "conceptId": "T001",
          "submissionValue": "code-SMT001",
          "definition": "Definition T001",
          "preferredTerm": "PT T001",
          "synonyms": [
            "Synonym 1", "Synonym 2"
          ]
        }
      ]
    },
    {
      "conceptId": "C002",
      "extensible": "true",
      "name": "Codelist 002 Name",
      "submissionValue": "SMC001",
      "definition": "Definition C001",
      "preferredTerm": "PT C001",
      "synonyms": [
        "Analysis Purpose"
      ],
      "terms": [
        {
          "conceptId": "T001",
          "submissionValue": "name-SMT001",
          "definition": "Definition T001",
          "preferredTerm": "PT T001",
          "synonyms": [
            "Synonym 1", "Synonym 2"
          ]
        },
        {
          "conceptId": "T002",
          "submissionValue": "name-SMT002",
          "definition": "Updated Definition T002",
          "preferredTerm": "PT T002"
        }
      ]
    }
  ]
}