{
  "name": "Cat3 CT 2020-01-01",
  "label": "Cat3 Controlled Terminology Package 1 Effective 2020-01-01",
  "description": "T03 has no submission value: -> log inconsistency",
  "source": "Cat3 source",
  "effectiveDate": "2020-01-01",
  "registrationStatus": "Final",
  "version": "2020-01-01",
  "_links": {
    "self": {
      "href": "/mdr/ct/packages/cat3-2020-01-01",
      "title": "Cat3 Controlled Terminology Package 1 Effective 2020-01-01",
      "type": "Terminology"
    },
    "priorVersion": {
      "href": "/mdr/ct/packages/cat3-2019-12-01",
      "title": "Cat3 Controlled Terminology Package 0 Effective 2019-12-01",
      "type": "Terminology"
    }
  },
  "codelists": [
    {
      "conceptId": "C04",
      "extensible": "true",
      "name": "Codelist C04",
      "submissionValue": "SM C04",
      "definition": "Definition C04",
      "preferredTerm": "PT C04",
      "synonyms": [
        "C04 X"
      ],
      "terms": [
        {
          "conceptId": "T03",
          "definition": "Definition T03",
          "preferredTerm": "PT T03",
          "synonyms": [
            "Synonym 1",
            "Synonym 2"
          ]
        }
      ]
    },
    {
      "conceptId": "C05",
      "extensible": "true",
      "name": "Codelist C05 NAME",
      "submissionValue": "SM C05",
      "definition": "Definition C05",
      "preferredTerm": "PT C05",
      "terms": [
        {
          "conceptId": "T04",
          "definition": "Definition T04",
          "preferredTerm": "PT T04",
          "submissionValue": "name-T04"
        }
      ]
    },
    {
      "conceptId": "C06",
      "extensible": "true",
      "name": "Codelist C06 coDe",
      "submissionValue": "SM C06",
      "definition": "Definition C06",
      "preferredTerm": "PT C06",
      "terms": [
        {
          "conceptId": "T05",
          "definition": "Definition T05",
          "preferredTerm": "PT T05",
          "submissionValue": "name-T05"
        },
        {
          "conceptId": "T06",
          "definition": "Definition T06",
          "preferredTerm": "PT T06",
          "submissionValue": "name-T06"
        }
      ]
    }
  ]
}