{
  "name": "Cat3 CT 2020-02-01",
  "label": "Cat3 Controlled Terminology Package 1 Effective 2020-02-01",
  "description": "Discontinues codelists C05 and C06: -> log entry in report",
  "source": "Cat3 source",
  "effectiveDate": "2020-02-01",
  "registrationStatus": "Final",
  "version": "2020-02-01",
  "_links": {
    "self": {
      "href": "/mdr/ct/packages/cat3-2020-02-01",
      "title": "Cat3 Controlled Terminology Package 2 Effective 2020-02-01",
      "type": "Terminology"
    },
    "priorVersion": {
      "href": "/mdr/ct/packages/cat3-2020-01-01",
      "title": "Cat3 Controlled Terminology Package 1 Effective 2020-01-01",
      "type": "Terminology"
    }
  },
  "codelists": [
    {
      "conceptId": "C04",
      "extensible": "true",
      "name": "Codelist C04",
      "submissionValue": "SM C04",
      "definition": "Definition C04",
      "preferredTerm": "PT C04",
      "synonyms": [
        "C04 X"
      ],
      "terms": [
        {
          "conceptId": "T03",
          "definition": "Definition T03",
          "preferredTerm": "PT T03",
          "synonyms": [
            "Synonym 1",
            "Synonym 2"
          ]
        }
      ]
    }
  ]
}