{
  "name": "Cat4 CT 2020-01-01",
  "label": "Cat4 Controlled Terminology Package 1 Effective 2020-01-01",
  "description": "The codelists C07 and C08 have the same term, however we don't know how to differentiate between code- and name-submission-value: -> log inconsistency",
  "source": "Cat4 source",
  "effectiveDate": "2020-01-01",
  "registrationStatus": "Final",
  "version": "2020-01-01",
  "_links": {
    "self": {
      "href": "/mdr/ct/packages/cat4-2020-01-01",
      "title": "Cat4 Controlled Terminology Package 1 Effective 2020-01-01",
      "type": "Terminology"
    },
    "priorVersion": {
      "href": "/mdr/ct/packages/cat4-2019-12-01",
      "title": "Cat4 Controlled Terminology Package 0 Effective 2019-12-01",
      "type": "Terminology"
    }
  },
  "codelists": [
    {
      "conceptId": "C07",
      "extensible": "true",
      "name": "Codelist C07",
      "submissionValue": "SM C07",
      "definition": "Definition C07",
      "preferredTerm": "PT C07",
      "terms": [
        {
          "conceptId": "T07",
          "definition": "Definition T07",
          "preferredTerm": "PT T07",
          "submissionValue": "name-T07"
        }
      ]
    },
    {
      "conceptId": "C08",
      "extensible": "true",
      "name": "Codelist C08",
      "submissionValue": "SM C08",
      "definition": "Definition C08",
      "preferredTerm": "PT C08",
      "terms": [
        {
          "conceptId": "T07",
          "definition": "Definition T07",
          "preferredTerm": "PT T07",
          "submissionValue": "code-T07"
        }
      ]
    }
  ]
}