{
  "name": "Cat6 CT 2020-01-01",
  "label": "Cat6 Controlled Terminology Package 1 Effective 2020-01-01",
  "description": "The codelists C09, C10 and C11 have the same term with different submission values -> log inconsistency",
  "source": "Cat6 source",
  "effectiveDate": "2020-01-01",
  "registrationStatus": "Final",
  "version": "2020-01-01",
  "_links": {
    "self": {
      "href": "/mdr/ct/packages/cat6-2020-01-01",
      "title": "Cat6 Controlled Terminology Package 1 Effective 2020-01-01",
      "type": "Terminology"
    },
    "priorVersion": {
      "href": "/mdr/ct/packages/cat6-2019-12-01",
      "title": "Cat6 Controlled Terminology Package 0 Effective 2019-12-01",
      "type": "Terminology"
    }
  },
  "codelists": [
    {
      "conceptId": "C09",
      "extensible": "true",
      "name": "Codelist C09",
      "submissionValue": "SM C09",
      "definition": "Definition C09",
      "preferredTerm": "PT C09",
      "terms": [
        {
          "conceptId": "T08",
          "definition": "Definition T08",
          "preferredTerm": "PT T08",
          "submissionValue": "name-T08"
        }
      ]
    },
    {
      "conceptId": "C10",
      "extensible": "true",
      "name": "Codelist C10",
      "submissionValue": "SM C10",
      "definition": "Definition C10",
      "preferredTerm": "PT C10",
      "terms": [
        {
          "conceptId": "T08",
          "definition": "Definition T08",
          "preferredTerm": "PT T08",
          "submissionValue": "code-T08"
        }
      ]
    },
    {
      "conceptId": "C11",
      "extensible": "true",
      "name": "Codelist C11",
      "submissionValue": "SM C11",
      "definition": "Definition C11",
      "preferredTerm": "PT C11",
      "terms": [
        {
          "conceptId": "T08",
          "definition": "Definition T08",
          "preferredTerm": "PT T08",
          "submissionValue": "unknown-future-T08"
        }
      ]
    }
  ]
}