{
  "name": "Cat7 CT 2020-01-01",
  "label": "Cat7 Controlled Terminology Package 1 Effective 2020-01-01",
  "description": "The codelist C12 contains the same term as in codelist C09 from 'Cat6 CT 2020-01-01'",
  "source": "Cat7 source",
  "effectiveDate": "2020-01-01",
  "registrationStatus": "Final",
  "version": "2020-01-01",
  "_links": {
    "self": {
      "href": "/mdr/ct/packages/cat7-2020-01-01",
      "title": "Cat7 Controlled Terminology Package 1 Effective 2020-01-01",
      "type": "Terminology"
    },
    "priorVersion": {
      "href": "/mdr/ct/packages/cat7-2019-12-01",
      "title": "Cat7 Controlled Terminology Package 0 Effective 2019-12-01",
      "type": "Terminology"
    }
  },
  "codelists": [
    {
      "conceptId": "C12",
      "extensible": "true",
      "name": "Codelist C12",
      "submissionValue": "SM C12",
      "definition": "Definition C12 - same name-T08 submission value as codelist C09 from 'Cat6 CT 2020-01-01'",
      "preferredTerm": "PT C12",
      "terms": [
        {
          "conceptId": "T08",
          "definition": "Definition T08",
          "preferredTerm": "PT T08",
          "submissionValue": "name-T08"
        }
      ]
    }
  ]
}