{
    "_links":
    {
        "priorVersion":
        {
            "href": "/mdr/ct/packages/ddfct-2024-03-29",
            "title": "DDF Controlled Terminology Package 57 Effective 2024-03-29",
            "type": "Terminology"
        },
        "self":
        {
            "href": "/mdr/ct/packages/ddfct-2024-09-27",
            "title": "DDF Controlled Terminology Package 58 Effective 2024-09-27",
            "type": "Terminology"
        }
    },
    "codelists":
    [
        {
            "conceptId": "C188714",
            "definition": "A terminology value set relevant to the attributes of the activity.",
            "extensible": "false",
            "name": "DDF Activity Attribute Terminology",
            "preferredTerm": "CDISC DDF Activity Attribute Terminology",
            "submissionValue": "DDF Activity Attribute Terminology",
            "synonyms":
            [
                "DDF Activity Attribute Terminology"
            ],
            "terms":
            [
                {
                    "conceptId": "C70960",
                    "definition": "The textual representation of the study activity.",
                    "preferredTerm": "Clinical Study Activity Description",
                    "submissionValue": "Clinical Study Activity Description"
                },
                {
                    "conceptId": "C207458",
                    "definition": "The short descriptive designation for the study activity.",
                    "preferredTerm": "Study Activity Label",
                    "submissionValue": "Clinical Study Activity Label"
                },
                {
                    "conceptId": "C188842",
                    "definition": "The literal identifier (i.e., distinctive designation) of the clinical study activity.",
                    "preferredTerm": "Clinical Study Activity Name",
                    "submissionValue": "Clinical Study Activity Name"
                }
            ]
        },
        {
            "conceptId": "C201253",
            "definition": "A terminology value set relevant to the attributes of the address.",
            "extensible": "false",
            "name": "DDF Address Attribute Terminology",
            "preferredTerm": "CDISC DDF Address Attribute Terminology",
            "submissionValue": "DDF Address Attribute Terminology",
            "synonyms":
            [
                "DDF Address Attribute Terminology"
            ],
            "terms":
            [
                {
                    "conceptId": "C201311",
                    "definition": "A standardized representation of the complete set of components denoting the physical address of the person, business, building, or organization.",
                    "preferredTerm": "Address Full Text",
                    "submissionValue": "Address Full Text"
                },
                {
                    "conceptId": "C25690",
                    "definition": "The street name and number, building number, apartment or unit number, or post office box number where an entity is physically located.",
                    "preferredTerm": "Street Address",
                    "submissionValue": "Address Line"
                },
                {
                    "conceptId": "C25160",
                    "definition": "A relatively large and/or densely populated area of human habitation with administrative or legal status that may be specified as a component of a postal address.",
                    "preferredTerm": "City",
                    "submissionValue": "City"
                },
                {
                    "conceptId": "C25464",
                    "definition": "A sovereign nation occupying a distinct territory and ruled by an autonomous government.",
                    "preferredTerm": "Country",
                    "submissionValue": "Country"
                },
                {
                    "conceptId": "C176229",
                    "definition": "An administrative or territorial division of a city, town, county, parish, state, country, or other locality based on a shared characteristic.",
                    "preferredTerm": "District",
                    "submissionValue": "District"
                },
                {
                    "conceptId": "C25621",
                    "definition": "An alphanumeric code assigned to a mail delivery area.",
                    "preferredTerm": "Postal Code",
                    "submissionValue": "Postal Code"
                },
                {
                    "conceptId": "C87194",
                    "definition": "A sub-division of a country that forms part of a federal union. States are usually, but not always, more autonomous than provinces and may have different laws from the central government.",
                    "preferredTerm": "State",
                    "submissionValue": "State"
                }
            ]
        },
        {
            "conceptId": "C207420",
            "definition": "A terminology value set relevant to the attributes of the administration duration.",
            "extensible": "false",
            "name": "DDF Administration Duration Attribute Terminology",
            "preferredTerm": "CDISC DDF Administration Duration Attribute Terminology",
            "submissionValue": "DDF Administration Duration Attribute Terminology",
            "synonyms":
            [
                "DDF Administration Duration Attribute Terminology"
            ],
            "terms":
            [
                {
                    "conceptId": "C207459",
                    "definition": "A narrative representation of the agent administration duration.",
                    "preferredTerm": "Administration Duration Description",
                    "submissionValue": "Administration Duration Description"
                },
                {
                    "conceptId": "C207460",
                    "definition": "The value representing the amount of time over which the administration of an agent occurs.",
                    "preferredTerm": "Administration Duration Quantity Value",
                    "submissionValue": "Administration Duration Quantity Value"
                },
                {
                    "conceptId": "C207462",
                    "definition": "The explanation for why the agent administration duration will vary within and/or across subjects.",
                    "preferredTerm": "Reason Administration Duration Will Vary",
                    "submissionValue": "Administration Duration Reason Duration Will Vary",
                    "synonyms":
                    [
                        "Reason Administration Duration Will Vary"
                    ]
                },
                {
                    "conceptId": "C207461",
                    "definition": "An indication as to whether the agent administration duration is planned to vary within and/or across subjects.",
                    "preferredTerm": "Administration Duration Will Vary Indicator",
                    "submissionValue": "Administration Duration Will Vary Indicator"
                }
            ]
        },
        {
            "conceptId": "C207421",
            "definition": "A terminology value set relevant to the attributes of the agent administration.",
            "extensible": "false",
            "name": "DDF Agent Administration Attribute Terminology",
            "preferredTerm": "CDISC DDF Agent Administration Attribute Terminology",
            "submissionValue": "DDF Agent Administration Attribute Terminology",
            "synonyms":
            [
                "DDF Agent Administration Attribute Terminology"
            ],
            "terms":
            [
                {
                    "conceptId": "C207463",
                    "definition": "A narrative representation of the agent administration.",
                    "preferredTerm": "Agent Administration Description",
                    "submissionValue": "Agent Administration Description"
                },
                {
                    "conceptId": "C167190",
                    "definition": "The value representing the amount of an agent given to an individual at one time.",
                    "preferredTerm": "Dose Administered",
                    "submissionValue": "Agent Administration Dose"
                },
                {
                    "conceptId": "C207464",
                    "definition": "The short descriptive designation for the agent administration.",
                    "preferredTerm": "Agent Administration Label",
                    "submissionValue": "Agent Administration Label"
                },
                {
                    "conceptId": "C207465",
                    "definition": "The literal identifier (i.e., distinctive designation) of the agent administration.",
                    "preferredTerm": "Agent Administration Name",
                    "submissionValue": "Agent Administration Name"
                },
                {
                    "conceptId": "C89081",
                    "definition": "The number of doses administered per a specific interval.",
                    "preferredTerm": "Dose Frequency",
                    "submissionValue": "Dosing Frequency",
                    "synonyms":
                    [
                        "Dosing Frequency"
                    ]
                },
                {
                    "conceptId": "C38114",
                    "definition": "The way in which a pharmaceutical product is taken into, or makes contact with, the body. (CDISC Glossary)",
                    "preferredTerm": "Route of Administration",
                    "submissionValue": "Route of Administration",
                    "synonyms":
                    [
                        "Route of Administration"
                    ]
                }
            ]
        },
        {
            "conceptId": "C188720",
            "definition": "A terminology value set relevant to the attributes of the analysis population.",
            "extensible": "false",
            "name": "DDF Analysis Population Attribute Terminology",
            "preferredTerm": "CDISC DDF Analysis Population Attribute Terminology",
            "submissionValue": "DDF Analysis Population Attribute Terminology",
            "synonyms":
            [
                "DDF Analysis Population Attribute Terminology"
            ],
            "terms":
            [
                {
                    "conceptId": "C188854",
                    "definition": "The textual representation of the study population for analysis.",
                    "preferredTerm": "Analysis Population Description",
                    "submissionValue": "Analysis Population Description"
                },
                {
                    "conceptId": "C207466",
                    "definition": "The short descriptive designation for the analysis population.",
                    "preferredTerm": "Analysis Population Label",
                    "submissionValue": "Analysis Population Label"
                },
                {
                    "conceptId": "C207467",
                    "definition": "The literal identifier (i.e., distinctive designation) of the analysis population.",
                    "preferredTerm": "Analysis Population Name",
                    "submissionValue": "Analysis Population Name"
                },
                {
                    "conceptId": "C207468",
                    "definition": "An instance of unstructured text that represents the analysis population.",
                    "preferredTerm": "Analysis Population Text",
                    "submissionValue": "Analysis Population Text"
                }
            ]
        },
        {
            "conceptId": "C201254",
            "definition": "A terminology value set relevant to the attributes of the biomedical concept.",
            "extensible": "false",
            "name": "DDF Biomedical Concept Attribute Terminology",
            "preferredTerm": "CDISC DDF Biomedical Concept Attribute Terminology",
            "submissionValue": "DDF Biomedical Concept Attribute Terminology",
            "synonyms":
            [
                "DDF Biomedical Concept Attribute Terminology"
            ],
            "terms":
            [
                {
                    "conceptId": "C207469",
                    "definition": "A concept unique identifier assigned to a biomedical concept that points to the meaning of that biomedical concept.",
                    "preferredTerm": "Biomedical Concept Code",
                    "submissionValue": "Biomedical Concept Concept Code"
                },
                {
                    "conceptId": "C207470",
                    "definition": "The short descriptive designation for the biomedical concept.",
                    "preferredTerm": "Biomedical Concept Label",
                    "submissionValue": "Biomedical Concept Label"
                },
                {
                    "conceptId": "C201312",
                    "definition": "The literal identifier (i.e., distinctive designation) of the biomedical concept.",
                    "preferredTerm": "Biomedical Concept Name",
                    "submissionValue": "Biomedical Concept Name"
                },
                {
                    "conceptId": "C201313",
                    "definition": "A citation to an authoritative source for a biomedical concept.",
                    "preferredTerm": "Biomedical Concept Reference",
                    "submissionValue": "Biomedical Concept Reference"
                },
                {
                    "conceptId": "C201314",
                    "definition": "A word or an expression that serves as a figurative, symbolic, or exact substitute for a biomedical concept, and which has the same meaning.",
                    "preferredTerm": "Biomedical Concept Synonym",
                    "submissionValue": "Biomedical Concept Synonym"
                }
            ]
        },
        {
            "conceptId": "C201255",
            "definition": "A terminology value set relevant to the attributes of the biomedical concept category.",
            "extensible": "false",
            "name": "DDF Biomedical Concept Category Attribute Terminology",
            "preferredTerm": "CDISC DDF Biomedical Concept Category Attribute Terminology",
            "submissionValue": "DDF Biomedical Concept Category Attribute Terminology",
            "synonyms":
            [
                "DDF Biomedical Concept Category Attribute Terminology"
            ],
            "terms":
            [
                {
                    "conceptId": "C201315",
                    "definition": "A symbol or combination of symbols which is assigned to the biomedical concept category.",
                    "preferredTerm": "Biomedical Concept Category Code",
                    "submissionValue": "Biomedical Concept Category Code"
                },
                {
                    "conceptId": "C201316",
                    "definition": "A narrative representation of the biomedical concept category.",
                    "preferredTerm": "Biomedical Concept Category Description",
                    "submissionValue": "Biomedical Concept Category Description"
                },
                {
                    "conceptId": "C207471",
                    "definition": "The short descriptive designation for the biomedical concept category.",
                    "preferredTerm": "Biomedical Concept Category Label",
                    "submissionValue": "Biomedical Concept Category Label"
                },
                {
                    "conceptId": "C201317",
                    "definition": "The literal identifier (i.e., distinctive designation) of the biomedical concept category.",
                    "preferredTerm": "Biomedical Concept Category Name",
                    "submissionValue": "Biomedical Concept Category Name"
                }
            ]
        },
        {
            "conceptId": "C201256",
            "definition": "A terminology value set relevant to the attributes of the biomedical concept property.",
            "extensible": "false",
            "name": "DDF Biomedical Concept Property Attribute Terminology",
            "preferredTerm": "CDISC DDF Biomedical Concept Property Attribute Terminology",
            "submissionValue": "DDF Biomedical Concept Property Attribute Terminology",
            "synonyms":
            [
                "DDF Biomedical Concept Property Attribute Terminology"
            ],
            "terms":
            [
                {
                    "conceptId": "C201318",
                    "definition": "A concept unique identifier assigned to a biomedical concept property that points to the meaning of that biomedical concept property.",
                    "preferredTerm": "Biomedical Concept Property Concept Code",
                    "submissionValue": "Biomedical Concept Property Concept Code"
                },
                {
                    "conceptId": "C202496",
                    "definition": "An indication as to whether the biomedical concept property is activated for use within a given usage context for a biomedical concept.",
                    "preferredTerm": "Biomedical Concept Property Enabled Indicator",
                    "submissionValue": "Biomedical Concept Property Enabled Indicator"
                },
                {
                    "conceptId": "C207472",
                    "definition": "The short descriptive designation for the biomedical concept property.",
                    "preferredTerm": "Biomedical Concept Property Label",
                    "submissionValue": "Biomedical Concept Property Label"
                },
                {
                    "conceptId": "C202494",
                    "definition": "The literal identifier (i.e., distinctive designation) of the biomedical concept property.",
                    "preferredTerm": "Biomedical Concept Property Name",
                    "submissionValue": "Biomedical Concept Property Name"
                },
                {
                    "conceptId": "C202495",
                    "definition": "An indication as to whether the biomedical concept property is required.",
                    "preferredTerm": "Biomedical Concept Property Required Indicator",
                    "submissionValue": "Biomedical Concept Property Required Indicator"
                },
                {
                    "conceptId": "C201319",
                    "definition": "The structural format of the biomedical concept property response value. The datatype is carried in the attribute and influences the set of allowable values the attribute may assume. (After HL7)",
                    "preferredTerm": "Biomedical Concept Property Response Data Type",
                    "submissionValue": "Biomedical Concept Property Response Data Type"
                }
            ]
        },
        {
            "conceptId": "C201257",
            "definition": "A terminology value set relevant to the attributes of the biomedical concept surrogate.",
            "extensible": "false",
            "name": "DDF Biomedical Concept Surrogate Attribute Terminology",
            "preferredTerm": "CDISC DDF Biomedical Concept Surrogate Attribute Terminology",
            "submissionValue": "DDF Biomedical Concept Surrogate Attribute Terminology",
            "synonyms":
            [
                "DDF Biomedical Concept Surrogate Attribute Terminology"
            ],
            "terms":
            [
                {
                    "conceptId": "C201320",
                    "definition": "A narrative representation of the biomedical concept surrogate.",
                    "preferredTerm": "Biomedical Concept Surrogate Description",
                    "submissionValue": "Biomedical Concept Surrogate Description"
                },
                {
                    "conceptId": "C207473",
                    "definition": "The short descriptive designation for the biomedical concept surrogate.",
                    "preferredTerm": "Biomedical Concept Surrogate Label",
                    "submissionValue": "Biomedical Concept Surrogate Label"
                },
                {
                    "conceptId": "C207474",
                    "definition": "The literal identifier (i.e., distinctive designation) of the biomedical concept surrogate.",
                    "preferredTerm": "Biomedical Concept Surrogate Name",
                    "submissionValue": "Biomedical Concept Surrogate Name"
                },
                {
                    "conceptId": "C201321",
                    "definition": "A citation to an authoritative source for a biomedical concept surrogate.",
                    "preferredTerm": "Biomedical Concept Surrogate Reference",
                    "submissionValue": "Biomedical Concept Surrogate Reference"
                }
            ]
        },
        {
            "conceptId": "C207422",
            "definition": "A terminology value set relevant to the attributes of the characteristic.",
            "extensible": "false",
            "name": "DDF Characteristic Attribute Terminology",
            "preferredTerm": "CDISC DDF Characteristic Attribute Terminology",
            "submissionValue": "DDF Characteristic Attribute Terminology",
            "synonyms":
            [
                "DDF Characteristic Attribute Terminology"
            ],
            "terms":
            [
                {
                    "conceptId": "C207475",
                    "definition": "A narrative representation of the characteristic.",
                    "preferredTerm": "Characteristic Description",
                    "submissionValue": "Characteristic Description"
                },
                {
                    "conceptId": "C207476",
                    "definition": "The short descriptive designation for the characteristic.",
                    "preferredTerm": "Characteristic Label",
                    "submissionValue": "Characteristic Label"
                },
                {
                    "conceptId": "C207477",
                    "definition": "The literal identifier (i.e., distinctive designation) of the characteristic.",
                    "preferredTerm": "Characteristic Name",
                    "submissionValue": "Characteristic Name"
                },
                {
                    "conceptId": "C207478",
                    "definition": "An instance of structured text that represents the characteristic.",
                    "preferredTerm": "Characteristic Text",
                    "submissionValue": "Characteristic Text"
                }
            ]
        },
        {
            "conceptId": "C188699",
            "definition": "A terminology value set relevant to the attributes of the clinical study.",
            "extensible": "false",
            "name": "DDF Clinical Study Attribute Terminology",
            "preferredTerm": "CDISC DDF Clinical Study Attribute Terminology",
            "submissionValue": "DDF Clinical Study Attribute Terminology",
            "synonyms":
            [
                "DDF Clinical Study Attribute Terminology"
            ],
            "terms":
            [
                {
                    "conceptId": "C207479",
                    "definition": "The short descriptive designation for the clinical study.",
                    "preferredTerm": "Clinical Study Label",
                    "submissionValue": "Clinical Study Label"
                },
                {
                    "conceptId": "C142704",
                    "definition": "A narrative representation of the study.",
                    "preferredTerm": "Study Description",
                    "submissionValue": "Study Description"
                },
                {
                    "conceptId": "C68631",
                    "definition": "The literal identifier (i.e., distinctive designation) of the study.",
                    "preferredTerm": "Study Name",
                    "submissionValue": "Study Name"
                }
            ]
        },
        {
            "conceptId": "C188722",
            "definition": "A terminology value set relevant to the attributes of the code.",
            "extensible": "false",
            "name": "DDF Code Attribute Terminology",
            "preferredTerm": "CDISC DDF Code Attribute Terminology",
            "submissionValue": "DDF Code Attribute Terminology",
            "synonyms":
            [
                "DDF Code Attribute Terminology"
            ],
            "terms":
            [
                {
                    "conceptId": "C188859",
                    "definition": "The literal identifier (i.e., distinctive designation) of the system used to assign and/or manage codes.",
                    "preferredTerm": "Code System Name",
                    "submissionValue": "Code System Name"
                },
                {
                    "conceptId": "C188868",
                    "definition": "The version of the code system.",
                    "preferredTerm": "Coding System Version",
                    "submissionValue": "Code System Version"
                },
                {
                    "conceptId": "C188858",
                    "definition": "The literal value of a code.",
                    "preferredTerm": "Code Value",
                    "submissionValue": "Code Value"
                },
                {
                    "conceptId": "C188861",
                    "definition": "Standardized or dictionary-derived human readable text associated with a code.",
                    "preferredTerm": "Decode Text",
                    "submissionValue": "Decode"
                }
            ]
        },
        {
            "conceptId": "C207425",
            "definition": "A terminology value set relevant to the attributes of the condition assignment.",
            "extensible": "false",
            "name": "DDF Condition Assignment Attribute Terminology",
            "preferredTerm": "CDISC DDF Condition Assignment Attribute Terminology",
            "submissionValue": "DDF Condition Assignment Attribute Terminology",
            "synonyms":
            [
                "DDF Condition Assignment Attribute Terminology"
            ],
            "terms":
            [
                {
                    "conceptId": "C47953",
                    "definition": "An assumption on which rests the validity or effect of something else.",
                    "preferredTerm": "Logical Condition",
                    "submissionValue": "Logical Condition"
                }
            ]
        },
        {
            "conceptId": "C207424",
            "definition": "A terminology value set relevant to the attributes of the condition.",
            "extensible": "false",
            "name": "DDF Condition Attribute Terminology",
            "preferredTerm": "CDISC DDF Condition Attribute Terminology",
            "submissionValue": "DDF Condition Attribute Terminology",
            "synonyms":
            [
                "DDF Condition Attribute Terminology"
            ],
            "terms":
            [
                {
                    "conceptId": "C207481",
                    "definition": "A narrative representation of the condition.",
                    "preferredTerm": "Condition Description",
                    "submissionValue": "Condition Description"
                },
                {
                    "conceptId": "C207482",
                    "definition": "The short descriptive designation for the condition.",
                    "preferredTerm": "Condition Label",
                    "submissionValue": "Condition Label"
                },
                {
                    "conceptId": "C207483",
                    "definition": "The literal identifier (i.e., distinctive designation) of the condition.",
                    "preferredTerm": "Condition Name",
                    "submissionValue": "Condition Name"
                },
                {
                    "conceptId": "C207484",
                    "definition": "An instance of structured text that represents the condition.",
                    "preferredTerm": "Condition Text",
                    "submissionValue": "Condition Text"
                }
            ]
        },
        {
            "conceptId": "C207427",
            "definition": "A terminology value set relevant to the attributes of the eligibility criteria.",
            "extensible": "false",
            "name": "DDF Eligibility Criteria Attribute Terminology",
            "preferredTerm": "CDISC DDF Eligibility Criteria Attribute Terminology",
            "submissionValue": "DDF Eligibility Criteria Attribute Terminology",
            "synonyms":
            [
                "DDF Eligibility Criteria Attribute Terminology"
            ],
            "terms":
            [
                {
                    "conceptId": "C83016",
                    "definition": "A classification of the inclusion exclusion criterion.",
                    "preferredTerm": "Inclusion Exclusion Criterion Category",
                    "submissionValue": "Study Eligibility Criteria Category"
                },
                {
                    "conceptId": "C207486",
                    "definition": "A narrative representation of the study eligibility criterion.",
                    "preferredTerm": "Study Eligibility Criteria Description",
                    "submissionValue": "Study Eligibility Criterion Description"
                },
                {
                    "conceptId": "C207489",
                    "definition": "A sequence of characters used to identify, name, or characterize the inclusion or exclusion criterion.",
                    "preferredTerm": "Study Eligibility Criterion Identifier",
                    "submissionValue": "Study Eligibility Criterion Identifier"
                },
                {
                    "conceptId": "C207487",
                    "definition": "The short descriptive designation for the study eligibility criterion.",
                    "preferredTerm": "Study Eligibility Criteria Label",
                    "submissionValue": "Study Eligibility Criterion Label"
                },
                {
                    "conceptId": "C207488",
                    "definition": "The literal identifier (i.e., distinctive designation) of the study eligibility criterion.",
                    "preferredTerm": "Study Eligibility Criteria Name",
                    "submissionValue": "Study Eligibility Criterion Name"
                },
                {
                    "conceptId": "C207485",
                    "definition": "An instance of structured text that represents the study eligibility criterion.",
                    "preferredTerm": "Study Eligibility Criteria Text",
                    "submissionValue": "Study Eligibility Criterion Text"
                }
            ]
        },
        {
            "conceptId": "C188713",
            "definition": "A terminology value set relevant to the attributes of the encounter.",
            "extensible": "false",
            "name": "DDF Encounter Attribute Terminology",
            "preferredTerm": "CDISC DDF Encounter Attribute Terminology",
            "submissionValue": "DDF Encounter Attribute Terminology",
            "synonyms":
            [
                "DDF Encounter Attribute Terminology"
            ],
            "terms":
            [
                {
                    "conceptId": "C188836",
                    "definition": "A narrative representation of the protocol-defined clinical encounter.",
                    "preferredTerm": "Clinical Encounter Description",
                    "submissionValue": "Clinical Encounter Description"
                },
                {
                    "conceptId": "C171010",
                    "definition": "The literal identifier (i.e., distinctive designation) for a protocol-defined clinical encounter.",
                    "preferredTerm": "Clinical Encounter Name",
                    "submissionValue": "Clinical Encounter Name"
                },
                {
                    "conceptId": "C188839",
                    "definition": "A characterization or classification of contact between subject/patient and healthcare practitioner/researcher, during which an assessment or activity is performed.",
                    "preferredTerm": "Clinical Encounter Type",
                    "submissionValue": "Clinical Encounter Type"
                },
                {
                    "conceptId": "C188841",
                    "definition": "The means by which an interaction occurs between the subject/participant and person or entity (e.g., a device).",
                    "preferredTerm": "Contact Mode",
                    "submissionValue": "Contact Mode"
                },
                {
                    "conceptId": "C188840",
                    "definition": "The environment/setting where the event, intervention, or finding occurred.",
                    "preferredTerm": "Environmental Setting",
                    "submissionValue": "Environmental Setting"
                },
                {
                    "conceptId": "C207490",
                    "definition": "The short descriptive designation for the study encounter.",
                    "preferredTerm": "Study Encounter Label",
                    "submissionValue": "Study Encounter Label"
                }
            ]
        },
        {
            "conceptId": "C188708",
            "definition": "A terminology value set relevant to the attributes of the endpoint.",
            "extensible": "false",
            "name": "DDF Endpoint Attribute Terminology",
            "preferredTerm": "CDISC DDF Endpoint Attribute Terminology",
            "submissionValue": "DDF Endpoint Attribute Terminology",
            "synonyms":
            [
                "DDF Endpoint Attribute Terminology"
            ],
            "terms":
            [
                {
                    "conceptId": "C188824",
                    "definition": "A narrative representation of the study endpoint.",
                    "preferredTerm": "Study Endpoint Description",
                    "submissionValue": "Study Endpoint Description"
                },
                {
                    "conceptId": "C207491",
                    "definition": "The short descriptive designation for the study endpoint.",
                    "preferredTerm": "Study Endpoint Label",
                    "submissionValue": "Study Endpoint Label"
                },
                {
                    "conceptId": "C188826",
                    "definition": "A characterization or classification of the study endpoint that determines its category of importance relative to other study endpoints.",
                    "preferredTerm": "Study Endpoint Level",
                    "submissionValue": "Study Endpoint Level"
                },
                {
                    "conceptId": "C207492",
                    "definition": "The literal identifier (i.e., distinctive designation) of the study endpoint.",
                    "preferredTerm": "Study Endpoint Name",
                    "submissionValue": "Study Endpoint Name"
                },
                {
                    "conceptId": "C188825",
                    "definition": "The reason or intention for the study endpoint.",
                    "preferredTerm": "Study Endpoint Purpose",
                    "submissionValue": "Study Endpoint Purpose"
                },
                {
                    "conceptId": "C207493",
                    "definition": "An instance of structured text that represents the study endpoint.",
                    "preferredTerm": "Study Endpoint Text",
                    "submissionValue": "Study Endpoint Text"
                }
            ]
        },
        {
            "conceptId": "C188698",
            "definition": "A terminology value set relevant to the entities within the CDISC digital data flow (DDF) model.",
            "extensible": "false",
            "name": "DDF Entity Terminology",
            "preferredTerm": "CDISC DDF Entities Terminology",
            "submissionValue": "DDF Entity Terminology",
            "synonyms":
            [
                "DDF Entity Terminology"
            ],
            "terms":
            [
                {
                    "conceptId": "C25407",
                    "definition": "A standardized representation of the location of a person, business, building, or organization. (NCI)",
                    "preferredTerm": "Address",
                    "submissionValue": "Address"
                },
                {
                    "conceptId": "C69282",
                    "definition": "The amount of time elapsed during the administration of an agent.",
                    "preferredTerm": "Duration of Administration",
                    "submissionValue": "Administration Duration"
                },
                {
                    "conceptId": "C70962",
                    "definition": "The act of the dispensing, applying, or tendering a medical product or other agent.",
                    "preferredTerm": "Agent Administration",
                    "submissionValue": "Agent Administration"
                },
                {
                    "conceptId": "C201344",
                    "definition": "An alternative symbol or combination of symbols which is assigned to the members of a collection.",
                    "preferredTerm": "Alias Code",
                    "submissionValue": "Alias Code"
                },
                {
                    "conceptId": "C201346",
                    "definition": "A grouping of biomedical concepts based on some commonality or by user defined characteristics.",
                    "preferredTerm": "Biomedical Concept Category",
                    "submissionValue": "Biomedical Concept Category"
                },
                {
                    "conceptId": "C202493",
                    "definition": "A characteristic from a set of characteristics used to define a biomedical concept.",
                    "preferredTerm": "Biomedical Concept Property",
                    "submissionValue": "Biomedical Concept Property"
                },
                {
                    "conceptId": "C207590",
                    "definition": "A concept that substitutes for a standard biomedical concept from the designated source.",
                    "preferredTerm": "Biomedical Concept Surrogate",
                    "submissionValue": "Biomedical Concept Surrogate"
                },
                {
                    "conceptId": "C201345",
                    "definition": "A unit of biomedical knowledge created from a unique combination of characteristics that include implementation details like variables and terminologies, used as building blocks for standardized, hierarchically structured clinical research information.",
                    "preferredTerm": "Biomedical Concept",
                    "submissionValue": "Biomedical Concept"
                },
                {
                    "conceptId": "C25447",
                    "definition": "The distinguishing qualities or prominent aspects of an entity.",
                    "preferredTerm": "Characteristic",
                    "submissionValue": "Characteristic"
                },
                {
                    "conceptId": "C142427",
                    "definition": "Contact between subject/patient and healthcare practitioner/researcher, during which an assessment or activity is performed. Contact may be physical or virtual.",
                    "preferredTerm": "Clinical Encounter",
                    "submissionValue": "Clinical Encounter"
                },
                {
                    "conceptId": "C15206",
                    "definition": "A clinical study involves research using human volunteers (also called participants) that is intended to add to medical knowledge. There are two main types of clinical studies: clinical trials (also called interventional studies) and observational studies. [ClinicalTrials.gov] See also clinical trial. (CDISC Glossary)",
                    "preferredTerm": "Clinical Study",
                    "submissionValue": "Clinical Study"
                },
                {
                    "conceptId": "C25162",
                    "definition": "A symbol or combination of symbols which is assigned to the members of a collection.",
                    "preferredTerm": "Code",
                    "submissionValue": "Code"
                },
                {
                    "conceptId": "C201335",
                    "definition": "An allotting or appointment to a set of conditions that are to be met in order to make a logical decision.",
                    "preferredTerm": "Condition Assignment",
                    "submissionValue": "Condition Assignments"
                },
                {
                    "conceptId": "C25457",
                    "definition": "A state of being.",
                    "preferredTerm": "Condition",
                    "submissionValue": "Condition"
                },
                {
                    "conceptId": "C41184",
                    "definition": "A health problem or disease that is identified as likely to be benefited by a therapy being studied in clinical trials.",
                    "preferredTerm": "Indication",
                    "submissionValue": "Disease/Condition Indication"
                },
                {
                    "conceptId": "C188813",
                    "definition": "A precise description of the treatment effect reflecting the clinical question posed by a given clinical trial objective. It summarises at a population level what the outcomes would be in the same patients under different treatment conditions being compared. (ICH E9 R1 Addendum)",
                    "preferredTerm": "Estimand",
                    "submissionValue": "Estimand"
                },
                {
                    "conceptId": "C207591",
                    "definition": "The extent or range related to the physical location of an entity.",
                    "preferredTerm": "Geographic Scope",
                    "submissionValue": "Geographic Scope"
                },
                {
                    "conceptId": "C188815",
                    "definition": "An event(s) occurring after treatment initiation that affects either the interpretation or the existence of the measurements associated with the clinical question of interest. (ICH E9 Addendum on Estimands)",
                    "preferredTerm": "Intercurrent Event",
                    "submissionValue": "Intercurrent Event"
                },
                {
                    "conceptId": "C191278",
                    "definition": "The mechanism used to obscure the distinctive characteristics of the study intervention or procedure to make it indistinguishable from the comparator. NOTE: Blinding refers to study participants while masking refers to the study intervention. (CDISC Glossary)",
                    "preferredTerm": "Masking",
                    "submissionValue": "Masking"
                },
                {
                    "conceptId": "C207592",
                    "definition": "The container that holds an instance of unstructured text and which may include objects such as tables, figures, and images.",
                    "preferredTerm": "Narrative Content",
                    "submissionValue": "Narrative Content"
                },
                {
                    "conceptId": "C19711",
                    "definition": "A formalized group of persons or other organizations collected together for a common purpose (such as administrative, legal, political) and the infrastructure to carry out that purpose. (BRIDG)",
                    "preferredTerm": "Professional Organization or Group",
                    "submissionValue": "Organization"
                },
                {
                    "conceptId": "C207456",
                    "definition": "The paired name and value for a given parameter.",
                    "preferredTerm": "Parameter Map",
                    "submissionValue": "Parameter Map"
                },
                {
                    "conceptId": "C207593",
                    "definition": "A concise explanation of the meaning of a population.",
                    "preferredTerm": "Population Definition",
                    "submissionValue": "Population Definition"
                },
                {
                    "conceptId": "C98769",
                    "definition": "Any activity performed by manual and/or instrumental means for the purpose of diagnosis, assessment, therapy, prevention, or palliative care.",
                    "preferredTerm": "Physical Medical Procedure",
                    "submissionValue": "Procedure",
                    "synonyms":
                    [
                        "Medical Procedure"
                    ]
                },
                {
                    "conceptId": "C25256",
                    "definition": "How much there is of something that can be measured; the total amount or number.",
                    "preferredTerm": "Quantity",
                    "submissionValue": "Quantity"
                },
                {
                    "conceptId": "C38013",
                    "definition": "The difference between the lowest and highest numerical values; the limits or scale of variation.",
                    "preferredTerm": "Range",
                    "submissionValue": "Range"
                },
                {
                    "conceptId": "C93448",
                    "definition": "An organization that undertakes systematic investigation within a field of study in order to discover facts, establish or revise a theory, test a hypothesis, or develop a plan of action based on the facts discovered.",
                    "preferredTerm": "Research Organization",
                    "submissionValue": "Research Organization"
                },
                {
                    "conceptId": "C201347",
                    "definition": "A symbol or combination of symbols representing the response to the question.",
                    "preferredTerm": "Response Code",
                    "submissionValue": "Response Code"
                },
                {
                    "conceptId": "C201349",
                    "definition": "To go out of or leave the schedule timeline.",
                    "preferredTerm": "Schedule Timeline Exit",
                    "submissionValue": "Schedule Timeline Exit"
                },
                {
                    "conceptId": "C201348",
                    "definition": "A chronological schedule of planned temporal events.",
                    "preferredTerm": "Schedule Timeline",
                    "submissionValue": "Schedule Timeline"
                },
                {
                    "conceptId": "C201350",
                    "definition": "A scheduled occurrence of an activity event.",
                    "preferredTerm": "Scheduled Activity Instance",
                    "submissionValue": "Scheduled Activity Instance"
                },
                {
                    "conceptId": "C201351",
                    "definition": "A scheduled occurrence of a decision event.",
                    "preferredTerm": "Scheduled Decision Instance",
                    "submissionValue": "Scheduled Decision Instance"
                },
                {
                    "conceptId": "C201299",
                    "definition": "A scheduled occurrence of a temporal event.",
                    "preferredTerm": "Scheduled Instance",
                    "submissionValue": "Scheduled Instance"
                },
                {
                    "conceptId": "C71473",
                    "definition": "An action, undertaking, or event, which is anticipated to be performed or observed, or was performed or observed, according to the study protocol during the execution of the study.",
                    "preferredTerm": "Study Activity",
                    "submissionValue": "Study Activity"
                },
                {
                    "conceptId": "C207457",
                    "definition": "The rationale for the change(s) to, or formal clarification of, a protocol.",
                    "preferredTerm": "Study Amendment Reason",
                    "submissionValue": "Study Amendment Reason",
                    "synonyms":
                    [
                        "Reason(s) for Amendment"
                    ]
                },
                {
                    "conceptId": "C207594",
                    "definition": "A written description of a change(s) to, or formal clarification of, a study.",
                    "preferredTerm": "Study Amendment",
                    "submissionValue": "Study Amendment"
                },
                {
                    "conceptId": "C174447",
                    "definition": "A planned pathway assigned to the subject as they progress through the study, usually referred to by a name that reflects one or more treatments, exposures, and/or controls included in the path.",
                    "preferredTerm": "Study Arm",
                    "submissionValue": "Study Arm",
                    "synonyms":
                    [
                        "Arm"
                    ]
                },
                {
                    "conceptId": "C61512",
                    "definition": "A group of individuals who share a set of characteristics (e.g., exposures, experiences, attributes), which logically defines a population under study.",
                    "preferredTerm": "Cohort",
                    "submissionValue": "Study Cohort"
                },
                {
                    "conceptId": "C188810",
                    "definition": "A partitioning of a study arm into individual pieces, which are associated with an epoch and any number of sequential elements within that epoch.",
                    "preferredTerm": "Study Design Cell",
                    "submissionValue": "Study Design Cell"
                },
                {
                    "conceptId": "C142735",
                    "definition": "A basic building block for time within a clinical study comprising the following characteristics: a description of what happens to the subject during the element; a definition of the start of the element; a rule for ending the element.",
                    "preferredTerm": "Trial Design Element",
                    "submissionValue": "Study Design Element"
                },
                {
                    "conceptId": "C15320",
                    "definition": "A strategy that specifies the structure of a study in terms of the planned activities (including timing) and statistical analysis approach intended to meet the objectives of the study.",
                    "preferredTerm": "Study Design",
                    "submissionValue": "Study Design"
                },
                {
                    "conceptId": "C16112",
                    "definition": "Characteristics which are necessary to allow a subject to participate in a clinical study, as outlined in the study protocol. The concept covers inclusion and exclusion criteria.",
                    "preferredTerm": "Clinical Trial Eligibility Criteria",
                    "submissionValue": "Study Eligibility Criteria",
                    "synonyms":
                    [
                        "Trial Eligibility Criteria"
                    ]
                },
                {
                    "conceptId": "C25212",
                    "definition": "A defined variable intended to reflect an outcome of interest that is statistically analyzed to address a particular research question. NOTE: A precise definition of an endpoint typically specifies the type of assessments made, the timing of those assessments, the assessment tools used, and possibly other details, as applicable, such as how multiple assessments within an individual are to be combined. [After BEST Resource] (CDISC Glossary)",
                    "preferredTerm": "End Point",
                    "submissionValue": "Study Endpoint"
                },
                {
                    "conceptId": "C71738",
                    "definition": "A named time period defined in the protocol, wherein a study activity is specified and unchanging throughout the interval, to support a study-specific purpose.",
                    "preferredTerm": "Clinical Trial Epoch",
                    "submissionValue": "Study Epoch"
                },
                {
                    "conceptId": "C207595",
                    "definition": "Any of the dates associated with event milestones within a clinical study's oversight and management framework.",
                    "preferredTerm": "Study Governance Date",
                    "submissionValue": "Study Governance Date"
                },
                {
                    "conceptId": "C83082",
                    "definition": "A sequence of characters used to identify, name, or characterize the study.",
                    "preferredTerm": "Study Identifier",
                    "submissionValue": "Study Identifier"
                },
                {
                    "conceptId": "C142450",
                    "definition": "The reason for performing a study in terms of the scientific questions to be answered by the analysis of data collected during the study.",
                    "preferredTerm": "Clinical Trial Objective",
                    "submissionValue": "Study Objective"
                },
                {
                    "conceptId": "C93381",
                    "definition": "A representation of the study protocol (that persists over time) in document form.",
                    "preferredTerm": "Study Protocol Document",
                    "submissionValue": "Study Protocol Document"
                },
                {
                    "conceptId": "C93490",
                    "definition": "A plan at a particular point in time for a formal investigation to assess the utility, impact, pharmacological, physiological, and/or psychological effects of a particular treatment, procedure, drug, device, biologic, food product, cosmetic, care plan, or subject characteristic. (BRIDG)",
                    "preferredTerm": "Study Protocol Version",
                    "submissionValue": "Study Protocol Version"
                },
                {
                    "conceptId": "C80403",
                    "definition": "The location at which a study investigator conducts study activities.",
                    "preferredTerm": "Study Site",
                    "submissionValue": "Study Site"
                },
                {
                    "conceptId": "C49802",
                    "definition": "The sponsor-defined name of the clinical study.",
                    "preferredTerm": "Trial Title",
                    "submissionValue": "Study Title",
                    "synonyms":
                    [
                        "Official Study Title",
                        "Study Title",
                        "Trial Title"
                    ]
                },
                {
                    "conceptId": "C188816",
                    "definition": "A plan at a particular point in time for a study.",
                    "preferredTerm": "Study Version",
                    "submissionValue": "Study Version"
                },
                {
                    "conceptId": "C37948",
                    "definition": "The act of enrolling subjects into a study. The subject will have met the inclusion/exclusion criteria to participate in the trial and will have signed an informed consent form. (CDISC Glossary)",
                    "preferredTerm": "Enrollment",
                    "submissionValue": "Subject Enrollment"
                },
                {
                    "conceptId": "C207597",
                    "definition": "A reference source that provides a listing of valid parameter names and values used in syntax template text strings.",
                    "preferredTerm": "Syntax Template Dictionary",
                    "submissionValue": "Syntax Template Dictionary"
                },
                {
                    "conceptId": "C207596",
                    "definition": "A standardized pattern used for the arrangement of words and phrases to create well-formed, structured sentences.",
                    "preferredTerm": "Syntax Template",
                    "submissionValue": "Syntax Template"
                },
                {
                    "conceptId": "C188814",
                    "definition": "A target study population on which an analysis is performed. These may be represented by the entire study population, a subgroup defined by a particular characteristic measured at baseline, or a principal stratum defined by the occurrence (or non-occurrence, depending on context) of a specific intercurrent event. (ICH E9 R1 Addendum)",
                    "preferredTerm": "Target Study Population for Analysis",
                    "submissionValue": "Target Study Population for Analysis"
                },
                {
                    "conceptId": "C142728",
                    "definition": "The group of people in the general population to which the study results can be generalized.",
                    "preferredTerm": "Target Study Population",
                    "submissionValue": "Target Study Population",
                    "synonyms":
                    [
                        "Target Population"
                    ]
                },
                {
                    "conceptId": "C80484",
                    "definition": "The chronological relationship between temporal events.",
                    "preferredTerm": "Timing",
                    "submissionValue": "Timing"
                },
                {
                    "conceptId": "C82567",
                    "definition": "A guide that governs the allocation of subjects to operational options at a discrete decision point or branch (e.g., assignment to a particular arm, discontinuation) within a clinical trial plan.",
                    "preferredTerm": "Transition Rule",
                    "submissionValue": "Transition Rule"
                }
            ]
        },
        {
            "conceptId": "C188719",
            "definition": "A terminology value set relevant to the attributes of the estimand.",
            "extensible": "false",
            "name": "DDF Estimand Attribute Terminology",
            "preferredTerm": "CDISC DDF Estimand Attribute Terminology",
            "submissionValue": "DDF Estimand Attribute Terminology",
            "synonyms":
            [
                "DDF Estimand Attribute Terminology"
            ],
            "terms":
            [
                {
                    "conceptId": "C188853",
                    "definition": "A synopsis of the clinical endpoint of interest within the analysis target study population.",
                    "preferredTerm": "Population-Level Summary",
                    "submissionValue": "Population-Level Summary"
                }
            ]
        },
        {
            "conceptId": "C207428",
            "definition": "A terminology value set relevant to the attributes of the geographic scope.",
            "extensible": "false",
            "name": "DDF Geographic Scope Attribute Terminology",
            "preferredTerm": "CDISC DDF Geographic Scope Attribute Terminology",
            "submissionValue": "DDF Geographic Scope Attribute Terminology",
            "synonyms":
            [
                "DDF Geographic Scope Attribute Terminology"
            ],
            "terms":
            [
                {
                    "conceptId": "C207494",
                    "definition": "A symbol or combination of symbols which is assigned to the geographic scope.",
                    "preferredTerm": "Geographic Scope Code",
                    "submissionValue": "Geographic Scope Code"
                },
                {
                    "conceptId": "C207495",
                    "definition": "A characterization or classification of the geographic scope.",
                    "preferredTerm": "Geographic Scope Type",
                    "submissionValue": "Geographic Scope Type"
                }
            ]
        },
        {
            "conceptId": "C207429",
            "definition": "A terminology value set relevant to the attributes of the governance date.",
            "extensible": "false",
            "name": "DDF Governance Date Attribute Terminology",
            "preferredTerm": "CDISC DDF Governance Date Attribute Terminology",
            "submissionValue": "DDF Governance Date Attribute Terminology",
            "synonyms":
            [
                "DDF Governance Date Attribute Terminology"
            ],
            "terms":
            [
                {
                    "conceptId": "C207496",
                    "definition": "A characterization or classification of the protocol approval date.",
                    "preferredTerm": "Protocol Approval Date Type",
                    "submissionValue": "Protocol Approval Date Type"
                },
                {
                    "conceptId": "C207497",
                    "definition": "A narrative representation of the study governance date.",
                    "preferredTerm": "Study Governance Date Description",
                    "submissionValue": "Study Governance Date Description"
                },
                {
                    "conceptId": "C207498",
                    "definition": "The short descriptive designation for the study governance date.",
                    "preferredTerm": "Study Governance Date Label",
                    "submissionValue": "Study Governance Date Label"
                },
                {
                    "conceptId": "C207499",
                    "definition": "The literal identifier (i.e., distinctive designation) of the study governance date",
                    "preferredTerm": "Study Governance Date Name",
                    "submissionValue": "Study Governance Date Name"
                },
                {
                    "conceptId": "C207500",
                    "definition": "The information contained in the date field.",
                    "preferredTerm": "Study Governance Date Value",
                    "submissionValue": "Study Governance Date Value"
                }
            ]
        },
        {
            "conceptId": "C188705",
            "definition": "A terminology value set relevant to the attributes of the disease indication.",
            "extensible": "false",
            "name": "DDF Indication Attribute Terminology",
            "preferredTerm": "CDISC DDF Indication Attribute Terminology",
            "submissionValue": "DDF Indication Attribute Terminology",
            "synonyms":
            [
                "DDF Indication Attribute Terminology"
            ],
            "terms":
            [
                {
                    "conceptId": "C188822",
                    "definition": "A short sequence of characters that represents the disease indication.",
                    "preferredTerm": "Disease Indication Code",
                    "submissionValue": "Disease Indication Code"
                },
                {
                    "conceptId": "C112038",
                    "definition": "A narrative representation of the condition, disease or disorder that the clinical trial is intended to investigate or address.",
                    "preferredTerm": "Trial Indication",
                    "submissionValue": "Disease/Condition Indication Description",
                    "synonyms":
                    [
                        "Indication for Use",
                        "Trial Disease/Condition Indication",
                        "Trial Disease/Condition Indication Description"
                    ]
                },
                {
                    "conceptId": "C207501",
                    "definition": "An indication as to whether the disease/condition indication under study is considered a rare disease.",
                    "preferredTerm": "Disease Indication Is Rare Disease Indicator",
                    "submissionValue": "Disease/Condition Indication Is Rare Disease Indicator"
                },
                {
                    "conceptId": "C207502",
                    "definition": "The short descriptive designation for the disease/condition indication.",
                    "preferredTerm": "Disease Indication Label",
                    "submissionValue": "Disease/Condition Indication Label"
                },
                {
                    "conceptId": "C207503",
                    "definition": "The literal identifier (i.e., distinctive designation) of the disease/condition indication.",
                    "preferredTerm": "Disease Indication Name",
                    "submissionValue": "Disease/Condition Indication Name"
                }
            ]
        },
        {
            "conceptId": "C188721",
            "definition": "A terminology value set relevant to the attributes of the intercurrent event.",
            "extensible": "false",
            "name": "DDF Intercurrent Event Attribute Terminology",
            "preferredTerm": "CDISC DDF Intercurrent Event Attribute Terminology",
            "submissionValue": "DDF Intercurrent Event Attribute Terminology",
            "synonyms":
            [
                "DDF Intercurrent Event Attribute Terminology"
            ],
            "terms":
            [
                {
                    "conceptId": "C188856",
                    "definition": "A narrative representation of the intercurrent event.",
                    "preferredTerm": "Intercurrent Event Description",
                    "submissionValue": "Intercurrent Event Description"
                },
                {
                    "conceptId": "C207504",
                    "definition": "The short descriptive designation for the intercurrent event.",
                    "preferredTerm": "Intercurrent Event Label",
                    "submissionValue": "Intercurrent Event Label"
                },
                {
                    "conceptId": "C188855",
                    "definition": "The literal identifier (i.e., distinctive designation) of the intercurrent event.",
                    "preferredTerm": "Intercurrent Event Name",
                    "submissionValue": "Intercurrent Event Name"
                },
                {
                    "conceptId": "C188857",
                    "definition": "A textual description of the planned strategy to manage and/or mitigate intercurrent events.",
                    "preferredTerm": "Intercurrent Event Strategy",
                    "submissionValue": "Intercurrent Event Strategy"
                }
            ]
        },
        {
            "conceptId": "C207430",
            "definition": "A terminology value set relevant to the attributes of the masking.",
            "extensible": "false",
            "name": "DDF Masking Attribute Terminology",
            "preferredTerm": "CDISC DDF Masking Attribute Terminology",
            "submissionValue": "DDF Masking Attribute Terminology",
            "synonyms":
            [
                "DDF Masking Attribute Terminology"
            ],
            "terms":
            [
                {
                    "conceptId": "C207505",
                    "definition": "A narrative representation of the study masking strategy, based on a person's role within the study.",
                    "preferredTerm": "Study Masking Description",
                    "submissionValue": "Masking Description"
                },
                {
                    "conceptId": "C207506",
                    "definition": "An identifying designation assigned to a masked individual within a study that corresponds with their function.",
                    "preferredTerm": "Study Masking Role",
                    "submissionValue": "Masking Role",
                    "synonyms":
                    [
                        "Blinded Roles",
                        "Blinding Roles"
                    ]
                }
            ]
        },
        {
            "conceptId": "C207426",
            "definition": "A terminology value set relevant to the attributes of the narrative content.",
            "extensible": "false",
            "name": "DDF Narrative Content Attribute Terminology",
            "preferredTerm": "CDISC DDF Narrative Content Attribute Terminology",
            "submissionValue": "DDF Narrative Content Attribute Terminology",
            "synonyms":
            [
                "DDF Narrative Content Attribute Terminology"
            ],
            "terms":
            [
                {
                    "conceptId": "C207507",
                    "definition": "The literal identifier (i.e., distinctive designation) of the narrative content.",
                    "preferredTerm": "Narrative Content Name",
                    "submissionValue": "Narrative Content Name"
                },
                {
                    "conceptId": "C207509",
                    "definition": "The numeric identifier assigned to a particular document section containing narrative content.",
                    "preferredTerm": "Narrative Content Section Number",
                    "submissionValue": "Narrative Content Section Number"
                },
                {
                    "conceptId": "C207510",
                    "definition": "An identifying designation for the document section containing narrative content.",
                    "preferredTerm": "Narrative Content Section Title",
                    "submissionValue": "Narrative Content Section Title"
                },
                {
                    "conceptId": "C207508",
                    "definition": "A textual representation of the narrative content.",
                    "preferredTerm": "Narrative Content Text",
                    "submissionValue": "Narrative Content Text"
                }
            ]
        },
        {
            "conceptId": "C188707",
            "definition": "A terminology value set relevant to the attributes of the objective.",
            "extensible": "false",
            "name": "DDF Objective Attribute Terminology",
            "preferredTerm": "CDISC DDF Objective Attribute Terminology",
            "submissionValue": "DDF Objective Attribute Terminology",
            "synonyms":
            [
                "DDF Objective Attribute Terminology"
            ],
            "terms":
            [
                {
                    "conceptId": "C94090",
                    "definition": "A narrative representation of the study objective.",
                    "preferredTerm": "Study Objective Description",
                    "submissionValue": "Study Objective Description"
                },
                {
                    "conceptId": "C207511",
                    "definition": "The short descriptive designation for the study objective.",
                    "preferredTerm": "Study Objective Label",
                    "submissionValue": "Study Objective Label"
                },
                {
                    "conceptId": "C188823",
                    "definition": "A characterization or classification of the study objective that determines its category of importance relative to other study objectives.",
                    "preferredTerm": "Study Objective Level",
                    "submissionValue": "Study Objective Level"
                },
                {
                    "conceptId": "C207512",
                    "definition": "The literal identifier (i.e., distinctive designation) of the study objective.",
                    "preferredTerm": "Study Objective Name",
                    "submissionValue": "Study Objective Name"
                },
                {
                    "conceptId": "C207513",
                    "definition": "An instance of structured text that represents the study objective.",
                    "preferredTerm": "Study Objective Text",
                    "submissionValue": "Study Objective Text"
                }
            ]
        },
        {
            "conceptId": "C188702",
            "definition": "A terminology value set relevant to the attributes of the organization.",
            "extensible": "false",
            "name": "DDF Organization Attribute Terminology",
            "preferredTerm": "CDISC DDF Organization Attribute Terminology",
            "submissionValue": "DDF Organization Attribute Terminology",
            "synonyms":
            [
                "DDF Organization Attribute Terminology"
            ],
            "terms":
            [
                {
                    "conceptId": "C188819",
                    "definition": "The name of the organization that provides the identifier for the entity.",
                    "preferredTerm": "Identifier Provider Organization Name",
                    "submissionValue": "Identifier Provider Organization Name"
                },
                {
                    "conceptId": "C93401",
                    "definition": "A unique symbol that establishes identity of the organization. (BRIDG)",
                    "preferredTerm": "Organization Identifier",
                    "submissionValue": "Organization Identifier"
                },
                {
                    "conceptId": "C207514",
                    "definition": "The short descriptive designation for the organization.",
                    "preferredTerm": "Organization Label",
                    "submissionValue": "Organization Label"
                },
                {
                    "conceptId": "C93874",
                    "definition": "A non-unique textual identifier for the organization. (BRIDG)",
                    "preferredTerm": "Organization Name",
                    "submissionValue": "Organization Name"
                },
                {
                    "conceptId": "C188820",
                    "definition": "A characterization or classification of the formalized group of persons or other organizations collected together for a common purpose (such as administrative, legal, political) and the infrastructure to carry out that purpose.",
                    "preferredTerm": "Organization Type",
                    "submissionValue": "Organization Type"
                }
            ]
        },
        {
            "conceptId": "C207431",
            "definition": "A terminology value set relevant to the attributes of the parameter map.",
            "extensible": "false",
            "name": "DDF Parameter Map Attribute Terminology",
            "preferredTerm": "CDISC DDF Parameter Map Attribute Terminology",
            "submissionValue": "DDF Parameter Map Attribute Terminology",
            "synonyms":
            [
                "DDF Parameter Map Attribute Terminology"
            ],
            "terms":
            [
                {
                    "conceptId": "C207516",
                    "definition": "The reference for a tag used in programming languages, such as a markup language (e.g., HTML, XML), to store attributes and elements.",
                    "preferredTerm": "Programming Tag Reference",
                    "submissionValue": "Programming Tag Reference"
                },
                {
                    "conceptId": "C207515",
                    "definition": "Character strings bounded by angle brackets that act as containers for programming language elements.",
                    "preferredTerm": "Programming Tag",
                    "submissionValue": "Programming Tag"
                }
            ]
        },
        {
            "conceptId": "C207432",
            "definition": "A terminology value set relevant to the attributes of the population definition.",
            "extensible": "false",
            "name": "DDF Population Definition Attribute Terminology",
            "preferredTerm": "CDISC DDF Population Definition Attribute Terminology",
            "submissionValue": "DDF Population Definition Attribute Terminology",
            "synonyms":
            [
                "DDF Population Definition Attribute Terminology"
            ],
            "terms":
            [
                {
                    "conceptId": "C207517",
                    "definition": "A narrative representation of the population definition.",
                    "preferredTerm": "Population Definition Description",
                    "submissionValue": "Population Definition Description"
                },
                {
                    "conceptId": "C207518",
                    "definition": "An indication as to whether the population definition includes healthy subjects, that is, subjects without the disease or condition under study.",
                    "preferredTerm": "Population Definition Includes Healthy Subjects Indicator",
                    "submissionValue": "Population Definition Includes Healthy Subjects Indicator"
                },
                {
                    "conceptId": "C207519",
                    "definition": "The short descriptive designation for the population definition.",
                    "preferredTerm": "Population Definition Label",
                    "submissionValue": "Population Definition Label"
                },
                {
                    "conceptId": "C207520",
                    "definition": "The literal identifier (i.e., distinctive designation) of the population definition.",
                    "preferredTerm": "Population Definition Name",
                    "submissionValue": "Population Definition Name"
                },
                {
                    "conceptId": "C207701",
                    "definition": "The anticipated age of subjects within the population definition.",
                    "preferredTerm": "Population Definition Planned Age",
                    "submissionValue": "Population Definition Planned Age"
                },
                {
                    "conceptId": "C207521",
                    "definition": "The value representing the planned number of subjects that must complete the study in order to meet the objectives and endpoints of the study, within the population definition.",
                    "preferredTerm": "Population Definition Planned Completion Number",
                    "submissionValue": "Population Definition Planned Completion Number"
                },
                {
                    "conceptId": "C207522",
                    "definition": "The value representing the planned number of subjects to be entered in a clinical trial, within the population definition.",
                    "preferredTerm": "Population Definition Planned Enrollment Number",
                    "submissionValue": "Population Definition Planned Enrollment Number"
                },
                {
                    "conceptId": "C207523",
                    "definition": "The protocol-defined sex within the population definition.",
                    "preferredTerm": "Population Definition Planned Sex",
                    "submissionValue": "Population Definition Planned Sex"
                }
            ]
        },
        {
            "conceptId": "C188716",
            "definition": "A terminology value set relevant to the attributes of the procedure.",
            "extensible": "false",
            "name": "DDF Procedure Attribute Terminology",
            "preferredTerm": "CDISC DDF Procedure Attribute Terminology",
            "submissionValue": "DDF Procedure Attribute Terminology",
            "synonyms":
            [
                "DDF Procedure Attribute Terminology"
            ],
            "terms":
            [
                {
                    "conceptId": "C154626",
                    "definition": "A symbol or combination of symbols which is assigned to medical procedure.",
                    "preferredTerm": "Procedure Code",
                    "submissionValue": "Procedure Code"
                },
                {
                    "conceptId": "C201324",
                    "definition": "A narrative representation of the procedure.",
                    "preferredTerm": "Procedure Description",
                    "submissionValue": "Procedure Description"
                },
                {
                    "conceptId": "C207524",
                    "definition": "The short descriptive designation for the procedure.",
                    "preferredTerm": "Procedure Label",
                    "submissionValue": "Procedure Label"
                },
                {
                    "conceptId": "C201325",
                    "definition": "The literal identifier (i.e., distinctive designation) of the procedure.",
                    "preferredTerm": "Procedure Name",
                    "submissionValue": "Procedure Name"
                },
                {
                    "conceptId": "C188848",
                    "definition": "A characterization or classification of the study procedure.",
                    "preferredTerm": "Study Procedure Type",
                    "submissionValue": "Procedure Type"
                }
            ]
        },
        {
            "conceptId": "C207433",
            "definition": "A terminology value set relevant to the attributes of the quantity.",
            "extensible": "false",
            "name": "DDF Quantity Attribute Terminology",
            "preferredTerm": "CDISC DDF Quantity Attribute Terminology",
            "submissionValue": "DDF Quantity Attribute Terminology",
            "synonyms":
            [
                "DDF Quantity Attribute Terminology"
            ],
            "terms":
            [
                {
                    "conceptId": "C44258",
                    "definition": "The type of unit of measure being used to express a quantity.",
                    "preferredTerm": "Unit of Quantity",
                    "submissionValue": "Quantity Unit"
                },
                {
                    "conceptId": "C25712",
                    "definition": "A numerical quantity measured or assigned or computed.",
                    "preferredTerm": "Value",
                    "submissionValue": "Quantity Value"
                }
            ]
        },
        {
            "conceptId": "C207434",
            "definition": "A terminology value set relevant to the attributes of the range.",
            "extensible": "false",
            "name": "DDF Range Attribute Terminology",
            "preferredTerm": "CDISC DDF Range Attribute Terminology",
            "submissionValue": "DDF Range Attribute Terminology",
            "synonyms":
            [
                "DDF Range Attribute Terminology"
            ],
            "terms":
            [
                {
                    "conceptId": "C25564",
                    "definition": "The largest value in quantity or degree in a set of values.",
                    "preferredTerm": "Maximum",
                    "submissionValue": "Maximum Value"
                },
                {
                    "conceptId": "C25570",
                    "definition": "The smallest value in quantity or degree in a set of values.",
                    "preferredTerm": "Minimum",
                    "submissionValue": "Minimum Value"
                },
                {
                    "conceptId": "C25709",
                    "definition": "A named quantity in terms of which other quantities are measured or specified, used as a standard measurement of like kinds.",
                    "preferredTerm": "Unit of Measure",
                    "submissionValue": "Unit of Measure"
                },
                {
                    "conceptId": "C207525",
                    "definition": "An indication as to whether the value range is almost, but not quite, exact.",
                    "preferredTerm": "Value Range is Approximate Indicator",
                    "submissionValue": "Value Range is Approximate Indicator"
                }
            ]
        },
        {
            "conceptId": "C207435",
            "definition": "A terminology value set relevant to the attributes of the research organization.",
            "extensible": "false",
            "name": "DDF Research Organization Attribute Terminology",
            "preferredTerm": "CDISC DDF Research Organization Attribute Terminology",
            "submissionValue": "DDF Research Organization Attribute Terminology",
            "synonyms":
            [
                "DDF Research Organization Attribute Terminology"
            ],
            "terms":
            [
                {
                    "conceptId": "C207526",
                    "definition": "The name of the research organization that provides the identifier for the entity.",
                    "preferredTerm": "Identifier Provider Research Organization Name",
                    "submissionValue": "Identifier Provider Research Organization Name"
                },
                {
                    "conceptId": "C188820",
                    "definition": "A characterization or classification of the formalized group of persons or other organizations collected together for a common purpose (such as administrative, legal, political) and the infrastructure to carry out that purpose.",
                    "preferredTerm": "Organization Type",
                    "submissionValue": "Organization Type"
                },
                {
                    "conceptId": "C207527",
                    "definition": "A sequence of characters used to identify, name, or characterize the research organization.",
                    "preferredTerm": "Research Organization Identifier",
                    "submissionValue": "Research Organization Identifier"
                },
                {
                    "conceptId": "C207528",
                    "definition": "The short descriptive designation for the research organization.",
                    "preferredTerm": "Research Organization Label",
                    "submissionValue": "Research Organization Label"
                },
                {
                    "conceptId": "C207529",
                    "definition": "The literal identifier (i.e., distinctive designation) of the research organization.",
                    "preferredTerm": "Research Organization Name",
                    "submissionValue": "Research Organization Name"
                }
            ]
        },
        {
            "conceptId": "C201258",
            "definition": "A terminology value set relevant to the attributes of the response code.",
            "extensible": "false",
            "name": "DDF Response Code Attribute Terminology",
            "preferredTerm": "CDISC DDF Response Code Attribute Terminology",
            "submissionValue": "DDF Response Code Attribute Terminology",
            "synonyms":
            [
                "DDF Response Code Attribute Terminology"
            ],
            "terms":
            [
                {
                    "conceptId": "C25162",
                    "definition": "A symbol or combination of symbols which is assigned to the members of a collection.",
                    "preferredTerm": "Code",
                    "submissionValue": "Code"
                },
                {
                    "conceptId": "C201330",
                    "definition": "An indication as to whether the response code is activated for use within a given usage context.",
                    "preferredTerm": "Response Code Enabled Indicator",
                    "submissionValue": "Response Code Enabled Indicator"
                }
            ]
        },
        {
            "conceptId": "C201259",
            "definition": "A terminology value set relevant to the attributes of the schedule timeline.",
            "extensible": "false",
            "name": "DDF Schedule Timeline Attribute Terminology",
            "preferredTerm": "CDISC DDF Schedule Timeline Attribute Terminology",
            "submissionValue": "DDF Schedule Timeline Attribute Terminology",
            "synonyms":
            [
                "DDF Schedule Timeline Attribute Terminology"
            ],
            "terms":
            [
                {
                    "conceptId": "C201331",
                    "definition": "An indication as to whether the timeline or timeline component is part of the central or principal timeline.",
                    "preferredTerm": "Main Timeline Indicator",
                    "submissionValue": "Main Timeline Indicator"
                },
                {
                    "conceptId": "C201332",
                    "definition": "A narrative representation of the schedule timeline.",
                    "preferredTerm": "Schedule Timeline Description",
                    "submissionValue": "Schedule Timeline Description"
                },
                {
                    "conceptId": "C201333",
                    "definition": "A logical evaluation on which rests the validity of entry into a schedule timeline.",
                    "preferredTerm": "Schedule Timeline Entry Condition",
                    "submissionValue": "Schedule Timeline Entry Condition"
                },
                {
                    "conceptId": "C207530",
                    "definition": "The short descriptive designation for the schedule timeline.",
                    "preferredTerm": "Schedule Timeline Label",
                    "submissionValue": "Schedule Timeline Label"
                },
                {
                    "conceptId": "C201334",
                    "definition": "The literal identifier (i.e., distinctive designation) of the schedule timeline.",
                    "preferredTerm": "Schedule Timeline Name",
                    "submissionValue": "Schedule Timeline Name"
                }
            ]
        },
        {
            "conceptId": "C207436",
            "definition": "A terminology value set relevant to the attributes of the scheduled activity instance.",
            "extensible": "false",
            "name": "DDF Scheduled Activity Instance Attribute Terminology",
            "preferredTerm": "CDISC DDF Scheduled Activity Instance Attribute Terminology",
            "submissionValue": "DDF Scheduled Activity Instance Attribute Terminology",
            "synonyms":
            [
                "DDF Scheduled Activity Instance Attribute Terminology"
            ],
            "terms":
            [
                {
                    "conceptId": "C207531",
                    "definition": "A narrative representation of the scheduled activity instance.",
                    "preferredTerm": "Scheduled Activity Instance Description",
                    "submissionValue": "Scheduled Activity Instance Description"
                },
                {
                    "conceptId": "C207532",
                    "definition": "The short descriptive designation for the scheduled activity instance.",
                    "preferredTerm": "Scheduled Activity Instance Label",
                    "submissionValue": "Scheduled Activity Instance Label"
                },
                {
                    "conceptId": "C207533",
                    "definition": "The literal identifier (i.e., distinctive designation) of the scheduled activity instance.",
                    "preferredTerm": "Scheduled Activity Instance Name",
                    "submissionValue": "Scheduled Activity Instance Name"
                }
            ]
        },
        {
            "conceptId": "C201260",
            "definition": "A terminology value set relevant to the attributes of the scheduled decision instance.",
            "extensible": "false",
            "name": "DDF Scheduled Decision Instance Attribute Terminology",
            "preferredTerm": "CDISC DDF Scheduled Decision Instance Attribute Terminology",
            "submissionValue": "DDF Scheduled Decision Instance Attribute Terminology",
            "synonyms":
            [
                "DDF Scheduled Decision Instance Attribute Terminology"
            ],
            "terms":
            [
                {
                    "conceptId": "C207534",
                    "definition": "A narrative representation of the scheduled Decision instance.",
                    "preferredTerm": "Scheduled Decision Instance Description",
                    "submissionValue": "Scheduled Decision Instance Description"
                },
                {
                    "conceptId": "C207535",
                    "definition": "The short descriptive designation for the scheduled Decision instance.",
                    "preferredTerm": "Scheduled Decision Instance Label",
                    "submissionValue": "Scheduled Decision Instance Label"
                },
                {
                    "conceptId": "C207536",
                    "definition": "The literal identifier (i.e., distinctive designation) of the scheduled Decision instance.",
                    "preferredTerm": "Scheduled Decision Instance Name",
                    "submissionValue": "Scheduled Decision Instance Name"
                }
            ]
        },
        {
            "conceptId": "C201261",
            "definition": "A terminology value set relevant to the attributes of the scheduled instance.",
            "extensible": "false",
            "name": "DDF Scheduled Instance Attribute Terminology",
            "preferredTerm": "CDISC DDF Scheduled Instance Attribute Terminology",
            "submissionValue": "DDF Scheduled Instance Attribute Terminology",
            "synonyms":
            [
                "DDF Scheduled Instance Attribute Terminology"
            ],
            "terms":
            [
                {
                    "conceptId": "C207453",
                    "definition": "A narrative representation of the scheduled instance.",
                    "preferredTerm": "Scheduled Instance Description",
                    "submissionValue": "Scheduled Instance Description"
                },
                {
                    "conceptId": "C207454",
                    "definition": "The short descriptive designation for the scheduled instance.",
                    "preferredTerm": "Scheduled Instance Label",
                    "submissionValue": "Scheduled Instance Label"
                },
                {
                    "conceptId": "C207455",
                    "definition": "The literal identifier (i.e., distinctive designation) of the scheduled instance.",
                    "preferredTerm": "Scheduled Instance Name",
                    "submissionValue": "Scheduled Instance Name"
                }
            ]
        },
        {
            "conceptId": "C207437",
            "definition": "A terminology value set relevant to the attributes of the study amendment.",
            "extensible": "false",
            "name": "DDF Study Amendment Attribute Terminology",
            "preferredTerm": "CDISC DDF Study Amendment Attribute Terminology",
            "submissionValue": "DDF Study Amendment Attribute Terminology",
            "synonyms":
            [
                "DDF Study Amendment Attribute Terminology"
            ],
            "terms":
            [
                {
                    "conceptId": "C207537",
                    "definition": "A string of numerals that uniquely identifies a protocol amendment.",
                    "preferredTerm": "Study Amendment Number",
                    "submissionValue": "Study Amendment Number",
                    "synonyms":
                    [
                        "Amendment Identifier"
                    ]
                },
                {
                    "conceptId": "C207538",
                    "definition": "An indication as to whether the amendment is likely to have a substantial impact on the safety or rights of study subjects/participants.",
                    "preferredTerm": "Study Amendment Substantial Impact Indicator",
                    "submissionValue": "Study Amendment Substantial Impact Indicator"
                },
                {
                    "conceptId": "C115627",
                    "definition": "A short narrative representation describing the changes introduced in the current version of the protocol.",
                    "preferredTerm": "Clinical Trial Protocol Amendment Summary",
                    "submissionValue": "Study Amendment Summary"
                }
            ]
        },
        {
            "conceptId": "C207438",
            "definition": "A terminology value set relevant to the attributes of the study amendment reason.",
            "extensible": "false",
            "name": "DDF Study Amendment Reason Attribute Terminology",
            "preferredTerm": "CDISC DDF Study Amendment Reason Attribute Terminology",
            "submissionValue": "DDF Study Amendment Reason Attribute Terminology",
            "synonyms":
            [
                "DDF Study Amendment Reason Attribute Terminology"
            ],
            "terms":
            [
                {
                    "conceptId": "C207539",
                    "definition": "The rationale for the change(s) to, or formal clarification of, a protocol that is not otherwise specified.",
                    "preferredTerm": "Other Reason for Study Amendment",
                    "submissionValue": "Other Reason for Study Amendment"
                },
                {
                    "conceptId": "C207540",
                    "definition": "A symbol or combination of symbols which is assigned to the study amendment reason.",
                    "preferredTerm": "Study Amendment Reason Code",
                    "submissionValue": "Study Amendment Reason Code",
                    "synonyms":
                    [
                        "Study Amendment Reason Code"
                    ]
                }
            ]
        },
        {
            "conceptId": "C188709",
            "definition": "A terminology value set relevant to the attributes of the study Arm.",
            "extensible": "false",
            "name": "DDF Study Arm Attribute Terminology",
            "preferredTerm": "CDISC DDF Study Arm Attribute Terminology",
            "submissionValue": "DDF Study Arm Attribute Terminology",
            "synonyms":
            [
                "DDF Study Arm Attribute Terminology"
            ],
            "terms":
            [
                {
                    "conceptId": "C188828",
                    "definition": "The textual representation of the study arm data origin.",
                    "preferredTerm": "Study Arm Data Origin Description",
                    "submissionValue": "Study Arm Data Origin Description"
                },
                {
                    "conceptId": "C188829",
                    "definition": "A characterization or classification of the study arm with respect to where the study arm data originates.",
                    "preferredTerm": "Study Arm Data Origin Type",
                    "submissionValue": "Study Arm Data Origin Type"
                },
                {
                    "conceptId": "C93728",
                    "definition": "A narrative representation of the study arm.",
                    "preferredTerm": "Arm Description",
                    "submissionValue": "Study Arm Description",
                    "synonyms":
                    [
                        "Arm Description"
                    ]
                },
                {
                    "conceptId": "C172456",
                    "definition": "The short descriptive designation for the study arm.",
                    "preferredTerm": "Study Arm Label",
                    "submissionValue": "Study Arm Label",
                    "synonyms":
                    [
                        "Arm Label"
                    ]
                },
                {
                    "conceptId": "C170984",
                    "definition": "The literal identifier (i.e., distinctive designation) of the study arm.",
                    "preferredTerm": "Planned Study Arm Name",
                    "submissionValue": "Study Arm Name"
                },
                {
                    "conceptId": "C172457",
                    "definition": "A characterization or classification of the study arm.",
                    "preferredTerm": "Study Arm Type",
                    "submissionValue": "Study Arm Type",
                    "synonyms":
                    [
                        "Arm Type"
                    ]
                }
            ]
        },
        {
            "conceptId": "C207439",
            "definition": "A terminology value set relevant to the attributes of the study cohort.",
            "extensible": "false",
            "name": "DDF Study Cohort Attribute Terminology",
            "preferredTerm": "CDISC DDF Study Cohort Attribute Terminology",
            "submissionValue": "DDF Study Cohort Attribute Terminology",
            "synonyms":
            [
                "DDF Study Cohort Attribute Terminology"
            ],
            "terms":
            [
                {
                    "conceptId": "C207542",
                    "definition": "A narrative representation of the study cohort.",
                    "preferredTerm": "Study Cohort Description",
                    "submissionValue": "Study Cohort Description"
                },
                {
                    "conceptId": "C207480",
                    "definition": "An indication as to whether the study cohort includes healthy subjects, that is, subjects without the disease or condition under study.",
                    "preferredTerm": "Study Cohort Includes Healthy Subjects Indicator",
                    "submissionValue": "Study Cohort Includes Healthy Subjects Indicator"
                },
                {
                    "conceptId": "C207543",
                    "definition": "The short descriptive designation for the study cohort.",
                    "preferredTerm": "Study Cohort Label",
                    "submissionValue": "Study Cohort Label"
                },
                {
                    "conceptId": "C207544",
                    "definition": "The literal identifier (i.e., distinctive designation) of the study cohort.",
                    "preferredTerm": "Study Cohort Name",
                    "submissionValue": "Study Cohort Name"
                },
                {
                    "conceptId": "C207545",
                    "definition": "The anticipated age of subjects within the study cohort.",
                    "preferredTerm": "Study Cohort Planned Age",
                    "submissionValue": "Study Cohort Planned Age"
                },
                {
                    "conceptId": "C207546",
                    "definition": "The value representing the planned number of subjects that must complete the study in order to meet the objectives and endpoints of the study, within the study cohort.",
                    "preferredTerm": "Study Cohort Planned Completion Number",
                    "submissionValue": "Study Cohort Planned Completion Number"
                },
                {
                    "conceptId": "C207702",
                    "definition": "The value representing the planned number of subjects to be entered in a clinical trial, within the study cohort.",
                    "preferredTerm": "Study Cohort Planned Enrollment Number",
                    "submissionValue": "Study Cohort Planned Enrollment Number"
                },
                {
                    "conceptId": "C207541",
                    "definition": "The protocol-defined sex within the study cohort.",
                    "preferredTerm": "Planned Sex of Study Cohort Participants",
                    "submissionValue": "Study Cohort Planned Sex"
                }
            ]
        },
        {
            "conceptId": "C188703",
            "definition": "A terminology value set relevant to the attributes of the study design.",
            "extensible": "false",
            "name": "DDF Study Design Attribute Terminology",
            "preferredTerm": "CDISC DDF Study Design Attribute Terminology",
            "submissionValue": "DDF Study Design Attribute Terminology",
            "synonyms":
            [
                "DDF Study Design Attribute Terminology"
            ],
            "terms":
            [
                {
                    "conceptId": "C98746",
                    "definition": "The general design of the strategy for assigning interventions to participants in a clinical study. (clinicaltrials.gov)",
                    "preferredTerm": "Intervention Model",
                    "submissionValue": "Intervention Model Type",
                    "synonyms":
                    [
                        "Intervention Model"
                    ]
                },
                {
                    "conceptId": "C207547",
                    "definition": "The distinguishing qualities or prominent aspect of a study design.",
                    "preferredTerm": "Study Design Characteristic",
                    "submissionValue": "Study Design Characteristic"
                },
                {
                    "conceptId": "C147139",
                    "definition": "A narrative representation of the study design.",
                    "preferredTerm": "Study Design Description",
                    "submissionValue": "Study Design Description",
                    "synonyms":
                    [
                        "Overall Design",
                        "Study Design Description",
                        "Study Design Overview",
                        "Summary of Study Design"
                    ]
                },
                {
                    "conceptId": "C207548",
                    "definition": "The short descriptive designation for the study design.",
                    "preferredTerm": "Study Design Label",
                    "submissionValue": "Study Design Label"
                },
                {
                    "conceptId": "C201338",
                    "definition": "The literal identifier (i.e., distinctive designation) of the study design.",
                    "preferredTerm": "Study Design Name",
                    "submissionValue": "Study Design Name"
                },
                {
                    "conceptId": "C70834",
                    "definition": "A narrative representation of the study design population.",
                    "preferredTerm": "Study Population Description",
                    "submissionValue": "Study Design Population Description"
                },
                {
                    "conceptId": "C142705",
                    "definition": "Reason(s) for choosing the study design. This may include reasons for the choice of control or comparator, as well as the scientific rationale for the study design.",
                    "preferredTerm": "Study Design Rationale",
                    "submissionValue": "Study Design Rationale"
                },
                {
                    "conceptId": "C101302",
                    "definition": "A categorization of a disease, disorder, or other condition based on common characteristics and often associated with a medical specialty focusing on research and development of specific therapeutic interventions for the purpose of treatment and prevention.",
                    "preferredTerm": "Therapeutic Area",
                    "submissionValue": "Therapeutic Areas",
                    "synonyms":
                    [
                        "Therapeutic Area"
                    ]
                },
                {
                    "conceptId": "C49658",
                    "definition": "The type of experimental design used to describe the level of awareness of the study subjects and/ or study personnel as it relates to the respective intervention(s) or assessments being observed, received or administered.",
                    "preferredTerm": "Trial Blinding Schema",
                    "submissionValue": "Trial Blinding Schema",
                    "synonyms":
                    [
                        "Study Blinding Design",
                        "Study Blinding Schema",
                        "Study Masking Design",
                        "Trial Blinding Design",
                        "Trial Blinding Schema",
                        "Trial Masking Design"
                    ]
                },
                {
                    "conceptId": "C49652",
                    "definition": "The planned purpose of the therapy, device, or agent under study in the clinical trial.",
                    "preferredTerm": "Clinical Study by Intent",
                    "submissionValue": "Trial Intent Type",
                    "synonyms":
                    [
                        "Trial Intent Type"
                    ]
                },
                {
                    "conceptId": "C49660",
                    "definition": "The nature of the interventional study for which information is being collected.",
                    "preferredTerm": "Trial Type",
                    "submissionValue": "Trial Type",
                    "synonyms":
                    [
                        "Trial Scope",
                        "Trial Type"
                    ]
                }
            ]
        },
        {
            "conceptId": "C188706",
            "definition": "A terminology value set relevant to the attributes of the study design population.",
            "extensible": "false",
            "name": "DDF Study Design Population Attribute Terminology",
            "preferredTerm": "CDISC DDF Study Design Population Attribute Terminology",
            "submissionValue": "DDF Study Design Population Attribute Terminology",
            "synonyms":
            [
                "DDF Study Design Population Attribute Terminology"
            ],
            "terms":
            [
                {
                    "conceptId": "C207549",
                    "definition": "An indication as to whether the study design population includes healthy subjects, that is, subjects without the disease or condition under study.",
                    "preferredTerm": "Study Design Population Includes Healthy Subjects Indicator",
                    "submissionValue": "Study Design Population Includes Healthy Subjects Indicator"
                },
                {
                    "conceptId": "C207550",
                    "definition": "The short descriptive designation for the study design population.",
                    "preferredTerm": "Study Design Population Label",
                    "submissionValue": "Study Design Population Label"
                },
                {
                    "conceptId": "C207553",
                    "definition": "The literal identifier (i.e., distinctive designation) of the study design population.",
                    "preferredTerm": "Study Design Population Name",
                    "submissionValue": "Study Design Population Name"
                },
                {
                    "conceptId": "C207450",
                    "definition": "The anticipated age of subjects within the study design population.",
                    "preferredTerm": "Study Design Population Planned Age",
                    "submissionValue": "Study Design Population Planned Age"
                },
                {
                    "conceptId": "C207451",
                    "definition": "The value representing the planned number of subjects that must complete the study in order to meet the objectives and endpoints of the study, within the study design population.",
                    "preferredTerm": "Study Design Population Planned Completion Number",
                    "submissionValue": "Study Design Population Planned Completion Number"
                },
                {
                    "conceptId": "C207452",
                    "definition": "The value representing the planned number of subjects to be entered in a clinical trial, within the study design population.",
                    "preferredTerm": "Study Design Population Planned Enrollment Number",
                    "submissionValue": "Study Design Population Planned Enrollment Number"
                },
                {
                    "conceptId": "C207551",
                    "definition": "The protocol-defined sex within the study design population.",
                    "preferredTerm": "Study Design Population Planned Sex",
                    "submissionValue": "Study Design Population Planned Sex"
                }
            ]
        },
        {
            "conceptId": "C188711",
            "definition": "A terminology value set relevant to the attributes of the study element.",
            "extensible": "false",
            "name": "DDF Study Element Attribute Terminology",
            "preferredTerm": "CDISC DDF Study Element Attribute Terminology",
            "submissionValue": "DDF Study Element Attribute Terminology",
            "synonyms":
            [
                "DDF Study Element Attribute Terminology"
            ],
            "terms":
            [
                {
                    "conceptId": "C188834",
                    "definition": "A narrative representation of the study design element.",
                    "preferredTerm": "Study Design Element Description",
                    "submissionValue": "Study Design Element Description"
                },
                {
                    "conceptId": "C207554",
                    "definition": "The short descriptive designation for the study design element.",
                    "preferredTerm": "Study Design Element Label",
                    "submissionValue": "Study Design Element Label"
                },
                {
                    "conceptId": "C188833",
                    "definition": "The literal identifier (i.e., distinctive designation) of the study design element.",
                    "preferredTerm": "Study Design Element Name",
                    "submissionValue": "Study Design Element Name"
                }
            ]
        },
        {
            "conceptId": "C188710",
            "definition": "A terminology value set relevant to the attributes of the study epoch.",
            "extensible": "false",
            "name": "DDF Study Epoch Attribute Terminology",
            "preferredTerm": "CDISC DDF Study Epoch Attribute Terminology",
            "submissionValue": "DDF Study Epoch Attribute Terminology",
            "synonyms":
            [
                "DDF Study Epoch Attribute Terminology"
            ],
            "terms":
            [
                {
                    "conceptId": "C93824",
                    "definition": "A narrative representation of the study epoch.",
                    "preferredTerm": "Epoch Description",
                    "submissionValue": "Study Epoch Description"
                },
                {
                    "conceptId": "C207555",
                    "definition": "The short descriptive designation for the study epoch.",
                    "preferredTerm": "Study Epoch Label",
                    "submissionValue": "Study Epoch Label"
                },
                {
                    "conceptId": "C93825",
                    "definition": "The literal identifier (i.e., distinctive designation) of the study epoch, i.e., the named time period defined in the protocol, wherein a study activity is specified and unchanging throughout the interval, to support a study-specific purpose.",
                    "preferredTerm": "Epoch Name",
                    "submissionValue": "Study Epoch Name"
                },
                {
                    "conceptId": "C188830",
                    "definition": "A characterization or classification of the study epoch, i.e., the named time period defined in the protocol, wherein a study activity is specified and unchanging throughout the interval, to support a study-specific purpose.",
                    "preferredTerm": "Study Epoch Type",
                    "submissionValue": "Study Epoch Type"
                }
            ]
        },
        {
            "conceptId": "C188701",
            "definition": "A terminology value set relevant to the attributes of the study identifier.",
            "extensible": "false",
            "name": "DDF Study Identifier Attribute Terminology",
            "preferredTerm": "CDISC DDF Study Identifier Attribute Terminology",
            "submissionValue": "DDF Study Identifier Attribute Terminology",
            "synonyms":
            [
                "DDF Study Identifier Attribute Terminology"
            ],
            "terms":
            [
                {
                    "conceptId": "C83082",
                    "definition": "A sequence of characters used to identify, name, or characterize the study.",
                    "preferredTerm": "Study Identifier",
                    "submissionValue": "Study Identifier"
                }
            ]
        },
        {
            "conceptId": "C188704",
            "definition": "A terminology value set relevant to the attributes of the study interventions.",
            "extensible": "false",
            "name": "DDF Study Intervention Attribute Terminology",
            "preferredTerm": "CDISC DDF Study Intervention Attribute Terminology",
            "submissionValue": "DDF Study Intervention Attribute Terminology",
            "synonyms":
            [
                "DDF Study Intervention Attribute Terminology"
            ],
            "terms":
            [
                {
                    "conceptId": "C98768",
                    "definition": "The pharmacological class of the investigational product.",
                    "preferredTerm": "Pharmacological Class of Investigational Therapy",
                    "submissionValue": "Pharmacologic Class",
                    "synonyms":
                    [
                        "Pharmacologic Class"
                    ]
                },
                {
                    "conceptId": "C207648",
                    "definition": "A symbol or combination of symbols which is assigned to the study intervention.",
                    "preferredTerm": "Study Intervention Code",
                    "submissionValue": "Study Intervention Code"
                },
                {
                    "conceptId": "C207647",
                    "definition": "A narrative representation of the study intervention.",
                    "preferredTerm": "Study Intervention Description",
                    "submissionValue": "Study Intervention Description"
                },
                {
                    "conceptId": "C207556",
                    "definition": "The short descriptive designation for the study intervention.",
                    "preferredTerm": "Study Intervention Label",
                    "submissionValue": "Study Intervention Label"
                },
                {
                    "conceptId": "C207557",
                    "definition": "The value representing the minimum amount of time required to meet the criteria for response to study intervention.",
                    "preferredTerm": "Study Intervention Minimum Response Duration",
                    "submissionValue": "Study Intervention Minimum Response Duration"
                },
                {
                    "conceptId": "C207558",
                    "definition": "The literal identifier (i.e., distinctive designation) of the study intervention.",
                    "preferredTerm": "Study Intervention Name",
                    "submissionValue": "Study Intervention Name"
                },
                {
                    "conceptId": "C207559",
                    "definition": "An indication as to whether the investigational intervention is an investigational medicinal product or an auxiliary medicinal product.",
                    "preferredTerm": "Study Intervention Product Type",
                    "submissionValue": "Study Intervention Product Designation"
                },
                {
                    "conceptId": "C207560",
                    "definition": "The intended use of the trial intervention within the context of the study design.",
                    "preferredTerm": "Study Intervention Role",
                    "submissionValue": "Study Intervention Role",
                    "synonyms":
                    [
                        "Study Intervention Use"
                    ]
                },
                {
                    "conceptId": "C98747",
                    "definition": "The kind of product or procedure studied in a trial.",
                    "preferredTerm": "Intervention Type",
                    "submissionValue": "Study Intervention Type",
                    "synonyms":
                    [
                        "Intervention Type"
                    ]
                }
            ]
        },
        {
            "conceptId": "C207440",
            "definition": "A terminology value set relevant to the attributes of the study protocol document.",
            "extensible": "false",
            "name": "DDF Study Protocol Document Attribute Terminology",
            "preferredTerm": "CDISC DDF Study Protocol Document Attribute Terminology",
            "submissionValue": "DDF Study Protocol Document Attribute Terminology",
            "synonyms":
            [
                "DDF Study Protocol Document Attribute Terminology"
            ],
            "terms":
            [
                {
                    "conceptId": "C207561",
                    "definition": "A narrative representation of the study protocol document.",
                    "preferredTerm": "Study Protocol Document Description",
                    "submissionValue": "Study Protocol Document Description"
                },
                {
                    "conceptId": "C207562",
                    "definition": "The short descriptive designation for the study protocol document.",
                    "preferredTerm": "Study Protocol Document Label",
                    "submissionValue": "Study Protocol Document Label"
                },
                {
                    "conceptId": "C207563",
                    "definition": "The literal identifier (i.e., distinctive designation) of the study protocol document.",
                    "preferredTerm": "Study Protocol Document Name",
                    "submissionValue": "Study Protocol Document Name"
                }
            ]
        },
        {
            "conceptId": "C207441",
            "definition": "A terminology value set relevant to the attributes of the study site.",
            "extensible": "false",
            "name": "DDF Study Site Attribute Terminology",
            "preferredTerm": "CDISC DDF Study Site Attribute Terminology",
            "submissionValue": "DDF Study Site Attribute Terminology",
            "synonyms":
            [
                "DDF Study Site Attribute Terminology"
            ],
            "terms":
            [
                {
                    "conceptId": "C207564",
                    "definition": "A narrative representation of the study site.",
                    "preferredTerm": "Study Site Description",
                    "submissionValue": "Study Site Description"
                },
                {
                    "conceptId": "C207565",
                    "definition": "The short descriptive designation for the study site.",
                    "preferredTerm": "Study Site Label",
                    "submissionValue": "Study Site Label"
                },
                {
                    "conceptId": "C207566",
                    "definition": "The literal identifier (i.e., distinctive designation) of the study site.",
                    "preferredTerm": "Study Site Name",
                    "submissionValue": "Study Site Name"
                }
            ]
        },
        {
            "conceptId": "C207442",
            "definition": "A terminology value set relevant to the attributes of the study title.",
            "extensible": "false",
            "name": "DDF Study Title Attribute Terminology",
            "preferredTerm": "CDISC DDF Study Title Attribute Terminology",
            "submissionValue": "DDF Study Title Attribute Terminology",
            "synonyms":
            [
                "DDF Study Title Attribute Terminology"
            ],
            "terms":
            [
                {
                    "conceptId": "C207567",
                    "definition": "An instance of unstructured text that represents the study title.",
                    "preferredTerm": "Study Title Text",
                    "submissionValue": "Study Title Text"
                },
                {
                    "conceptId": "C207568",
                    "definition": "A characterization or classification of the study title.",
                    "preferredTerm": "Study Title Type",
                    "submissionValue": "Study Title Type"
                }
            ]
        },
        {
            "conceptId": "C207443",
            "definition": "A terminology value set relevant to the attributes of the study version.",
            "extensible": "false",
            "name": "DDF Study Version Attribute Terminology",
            "preferredTerm": "CDISC DDF Study Version Attribute Terminology",
            "submissionValue": "DDF Study Version Attribute Terminology",
            "synonyms":
            [
                "DDF Study Version Attribute Terminology"
            ],
            "terms":
            [
                {
                    "conceptId": "C201322",
                    "definition": "A therapeutic area classification based on the structure and operations of the business unit.",
                    "preferredTerm": "Business Therapeutic Area",
                    "submissionValue": "Business Therapeutic Areas"
                },
                {
                    "conceptId": "C94122",
                    "definition": "A statement describing the overall rationale of the study. This field describes the contribution of this study to product development, i.e., what knowledge is being contributed from the conduct of this study.",
                    "preferredTerm": "Study Protocol Version Purpose Statement",
                    "submissionValue": "Study Rationale",
                    "synonyms":
                    [
                        "Study Purpose"
                    ]
                },
                {
                    "conceptId": "C142175",
                    "definition": "The nature of the investigation for which study information is being collected. (After clinicaltrials.gov)",
                    "preferredTerm": "Study Type",
                    "submissionValue": "Study Type Classification",
                    "synonyms":
                    [
                        "Study Type",
                        "Study Type Classification"
                    ]
                },
                {
                    "conceptId": "C207570",
                    "definition": "A sequence of characters used to identify, name, or characterize the study version.",
                    "preferredTerm": "Study Version Identifier",
                    "submissionValue": "Study Version Identifier"
                },
                {
                    "conceptId": "C48281",
                    "definition": "A step in the clinical research and development of a therapy from initial clinical trials to post-approval studies. NOTE: Clinical trials are generally categorized into four (sometimes five) phases. A therapeutic intervention may be evaluated in two or more phases simultaneously in different trials, and some trials may overlap two different phases. [21 CFR section 312.21; After ICH Topic E8 NOTE FOR GUIDANCE ON GENERAL CONSIDERATIONS FOR CLINICAL TRIALS, CPMP/ICH/291/95 March 1998]",
                    "preferredTerm": "Trial Phase",
                    "submissionValue": "Trial Phase",
                    "synonyms":
                    [
                        "Trial Phase",
                        "Trial Phase Classification"
                    ]
                }
            ]
        },
        {
            "conceptId": "C207444",
            "definition": "A terminology value set relevant to the attributes of the subject enrollment.",
            "extensible": "false",
            "name": "DDF Subject Enrollment Attribute Terminology",
            "preferredTerm": "CDISC DDF Subject Enrollment Attribute Terminology",
            "submissionValue": "DDF Subject Enrollment Attribute Terminology",
            "synonyms":
            [
                "DDF Subject Enrollment Attribute Terminology"
            ],
            "terms":
            [
                {
                    "conceptId": "C207571",
                    "definition": "A symbol or combination of symbols which is assigned to the subject enrollment.",
                    "preferredTerm": "Subject Enrollment Code",
                    "submissionValue": "Subject Enrollment Code"
                },
                {
                    "conceptId": "C207573",
                    "definition": "The value representing the number of individuals enrolled in a study.",
                    "preferredTerm": "Subject Enrollment Quantity Value",
                    "submissionValue": "Subject Enrollment Quantity Value"
                },
                {
                    "conceptId": "C207574",
                    "definition": "A characterization or classification of the subject enrollment.",
                    "preferredTerm": "Subject Enrollment Type",
                    "submissionValue": "Subject Enrollment Type"
                }
            ]
        },
        {
            "conceptId": "C207445",
            "definition": "A terminology value set relevant to the attributes of the syntax template.",
            "extensible": "false",
            "name": "DDF Syntax Template Attribute Terminology",
            "preferredTerm": "CDISC DDF Syntax Template Attribute Terminology",
            "submissionValue": "DDF Syntax Template Attribute Terminology",
            "synonyms":
            [
                "DDF Syntax Template Attribute Terminology"
            ],
            "terms":
            [
                {
                    "conceptId": "C207575",
                    "definition": "A narrative representation of the syntax template.",
                    "preferredTerm": "Syntax Template Description",
                    "submissionValue": "Syntax Template Description"
                },
                {
                    "conceptId": "C207576",
                    "definition": "The short descriptive designation for the syntax template.",
                    "preferredTerm": "Syntax Template Label",
                    "submissionValue": "Syntax Template Label"
                },
                {
                    "conceptId": "C207577",
                    "definition": "The literal identifier (i.e., distinctive designation) of the syntax template.",
                    "preferredTerm": "Syntax Template Name",
                    "submissionValue": "Syntax Template Name"
                },
                {
                    "conceptId": "C207578",
                    "definition": "A structured text string containing prescribed text interspersed with user-defined parameter values.",
                    "preferredTerm": "Syntax Template Text",
                    "submissionValue": "Syntax Template Text"
                }
            ]
        },
        {
            "conceptId": "C207446",
            "definition": "A terminology value set relevant to the attributes of the syntax template dictionary.",
            "extensible": "false",
            "name": "DDF Syntax Template Dictionary Attribute Terminology",
            "preferredTerm": "CDISC DDF Syntax Template Dictionary Attribute Terminology",
            "submissionValue": "DDF Syntax Template Dictionary Attribute Terminology",
            "synonyms":
            [
                "DDF Syntax Template Dictionary Attribute Terminology"
            ],
            "terms":
            [
                {
                    "conceptId": "C207579",
                    "definition": "A narrative representation of the syntax template dictionary.",
                    "preferredTerm": "Syntax Template Dictionary Description",
                    "submissionValue": "Syntax Template Dictionary Description"
                },
                {
                    "conceptId": "C207580",
                    "definition": "The short descriptive designation for the syntax template dictionary.",
                    "preferredTerm": "Syntax Template Dictionary Label",
                    "submissionValue": "Syntax Template Dictionary Label"
                },
                {
                    "conceptId": "C207581",
                    "definition": "The literal identifier (i.e., distinctive designation) of the syntax template dictionary.",
                    "preferredTerm": "Syntax Template Dictionary Name",
                    "submissionValue": "Syntax Template Dictionary Name"
                }
            ]
        },
        {
            "conceptId": "C201262",
            "definition": "A terminology value set relevant to the attributes of the timing.",
            "extensible": "false",
            "name": "DDF Timing Attribute Terminology",
            "preferredTerm": "CDISC DDF Timing Attribute Terminology",
            "submissionValue": "DDF Timing Attribute Terminology",
            "synonyms":
            [
                "DDF Timing Attribute Terminology"
            ],
            "terms":
            [
                {
                    "conceptId": "C164648",
                    "definition": "A narrative representation of the biomedical concept category.",
                    "preferredTerm": "Timing Description",
                    "submissionValue": "Timing Description"
                },
                {
                    "conceptId": "C207583",
                    "definition": "The short descriptive designation for the timing.",
                    "preferredTerm": "Timing Label",
                    "submissionValue": "Timing Label"
                },
                {
                    "conceptId": "C207584",
                    "definition": "The literal identifier (i.e., distinctive designation) of the timing.",
                    "preferredTerm": "Timing Name",
                    "submissionValue": "Timing Name"
                },
                {
                    "conceptId": "C201297",
                    "definition": "The name of the reference event used to define the temporal relationship with another event.",
                    "preferredTerm": "Timing Relative To From Name",
                    "submissionValue": "Timing Relative To From"
                },
                {
                    "conceptId": "C201298",
                    "definition": "A characterization or classification of the chronological relationship between temporal events.",
                    "preferredTerm": "Timing Type",
                    "submissionValue": "Timing Type"
                },
                {
                    "conceptId": "C207585",
                    "definition": "The short descriptive designation for the timing value.",
                    "preferredTerm": "Timing Value Label",
                    "submissionValue": "Timing Value Label"
                },
                {
                    "conceptId": "C201341",
                    "definition": "The temporal value of the chronological relationship between temporal events.",
                    "preferredTerm": "Timing Value",
                    "submissionValue": "Timing Value"
                },
                {
                    "conceptId": "C207586",
                    "definition": "The short descriptive designation for a time period, or other type of interval, during which a temporal event may be achieved, obtained, or observed.",
                    "preferredTerm": "Timing Window Label",
                    "submissionValue": "Timing Window Label"
                },
                {
                    "conceptId": "C201342",
                    "definition": "The earliest chronological value of an allowable period of time during which a temporal event takes place.",
                    "preferredTerm": "Lower Timing Window",
                    "submissionValue": "Timing Window, Lower"
                },
                {
                    "conceptId": "C201343",
                    "definition": "The latest chronological value of an allowable period of time during which a temporal event takes place.",
                    "preferredTerm": "Upper Timing Window",
                    "submissionValue": "Timing Window, Upper"
                }
            ]
        },
        {
            "conceptId": "C188712",
            "definition": "A terminology value set relevant to the attributes of the transition rule.",
            "extensible": "false",
            "name": "DDF Transition Rule Attribute Terminology",
            "preferredTerm": "CDISC DDF Transition Rule Attribute Terminology",
            "submissionValue": "DDF Transition Rule Attribute Terminology",
            "synonyms":
            [
                "DDF Transition Rule Attribute Terminology"
            ],
            "terms":
            [
                {
                    "conceptId": "C188835",
                    "definition": "A narrative representation of the transition rule.",
                    "preferredTerm": "Transition Rule Description",
                    "submissionValue": "Transition Rule Description"
                },
                {
                    "conceptId": "C207587",
                    "definition": "The short descriptive designation for the transition rule.",
                    "preferredTerm": "Transition Rule Label",
                    "submissionValue": "Transition Rule Label"
                },
                {
                    "conceptId": "C207588",
                    "definition": "The literal identifier (i.e., distinctive designation) of the transition rule.",
                    "preferredTerm": "Transition Rule Name",
                    "submissionValue": "Transition Rule Name"
                },
                {
                    "conceptId": "C207589",
                    "definition": "An instance of unstructured text that represents the transition rule.",
                    "preferredTerm": "Transition Rule Text",
                    "submissionValue": "Transition Rule Text"
                }
            ]
        },
        {
            "conceptId": "C188728",
            "definition": "The terminology relevant to the encounter type.",
            "extensible": "true",
            "name": "Encounter Type Value Set Terminology",
            "preferredTerm": "CDISC DDF Encounter Type Value Set Terminology",
            "submissionValue": "Encounter Type Value Set Terminology",
            "synonyms":
            [
                "Encounter Type Value Set Terminology"
            ],
            "terms":
            [
                {
                    "conceptId": "C25716",
                    "definition": "The act of going to see some person or place or thing; it can cover a short or long period but refers to a non-permanent arrangement.",
                    "preferredTerm": "Visit",
                    "submissionValue": "Visit"
                }
            ]
        },
        {
            "conceptId": "C188726",
            "definition": "The terminology relevant to the endpoint level.",
            "extensible": "false",
            "name": "Endpoint Level Value Set Terminology",
            "preferredTerm": "CDISC DDF Endpoint Level Value Set Terminology",
            "submissionValue": "Endpoint Level Value Set Terminology",
            "synonyms":
            [
                "Endpoint Level Value Set Terminology"
            ],
            "terms":
            [
                {
                    "conceptId": "C170559",
                    "definition": "Endpoint(s) that may include clinically important events that are expected to occur too infrequently to show a treatment effect or endpoints that for other reasons are thought to be less likely to show an effect but are included to explore new hypotheses. (After FDA-NIH Protocol Template)",
                    "preferredTerm": "Exploratory Endpoint",
                    "submissionValue": "Exploratory Endpoint"
                },
                {
                    "conceptId": "C94496",
                    "definition": "Endpoint(s) of greatest importance that is the basis for concluding whether the study met its objective(s) and provides a clinically relevant, valid, and reliable measure of the primary objective(s). (After FDA-NIH Protocol Template)",
                    "preferredTerm": "Primary Endpoint",
                    "submissionValue": "Primary Endpoint"
                },
                {
                    "conceptId": "C139173",
                    "definition": "Endpoint(s) that may provide supportive information about the effect of the study intervention(s) on the primary endpoint or demonstrate additional effects on the disease or condition. (After FDA-NIH Protocol Template)",
                    "preferredTerm": "Secondary Endpoint",
                    "submissionValue": "Secondary Endpoint"
                }
            ]
        },
        {
            "conceptId": "C207412",
            "definition": "The terminology relevant to the geographic scope type value set.",
            "extensible": "false",
            "name": "Geographic Scope Type Value Set Terminology",
            "preferredTerm": "CDISC DDF Geographic Scope Type Value Set Terminology",
            "submissionValue": "Geographic Scope Type Value Set Terminology",
            "synonyms":
            [
                "Geographic Scope Type Value Set Terminology"
            ],
            "terms":
            [
                {
                    "conceptId": "C25464",
                    "definition": "A sovereign nation occupying a distinct territory and ruled by an autonomous government.",
                    "preferredTerm": "Country",
                    "submissionValue": "Country"
                },
                {
                    "conceptId": "C68846",
                    "definition": "Covering or affecting the whole of a system.",
                    "preferredTerm": "Global",
                    "submissionValue": "Global"
                },
                {
                    "conceptId": "C41129",
                    "definition": "An area or portion of something with more or less definite boundaries designed or specified according to some established criteria.",
                    "preferredTerm": "Region",
                    "submissionValue": "Region"
                }
            ]
        },
        {
            "conceptId": "C207413",
            "definition": "The terminology relevant to the governance date type value set.",
            "extensible": "true",
            "name": "Governance Date Type Value Set Terminology",
            "preferredTerm": "CDISC DDF Governance Date Type Value Set Terminology",
            "submissionValue": "Governance Date Type Value Set Terminology",
            "synonyms":
            [
                "Governance Date Type Value Set Terminology"
            ],
            "terms":
            [
                {
                    "conceptId": "C207598",
                    "definition": "The date and time specifying when the protocol takes effect or becomes operative.",
                    "preferredTerm": "Protocol Effective Date",
                    "submissionValue": "Protocol Effective Date"
                },
                {
                    "conceptId": "C132352",
                    "definition": "The date on which a version of the protocol was finalized or approved by the sponsor.",
                    "preferredTerm": "Protocol Approval by Sponsor Date",
                    "submissionValue": "Sponsor Approval Date",
                    "synonyms":
                    [
                        "Protocol Amendment Approval by Sponsor Date",
                        "Study Protocol Version Approval Date"
                    ]
                }
            ]
        },
        {
            "conceptId": "C207414",
            "definition": "The terminology relevant to the masking role value set.",
            "extensible": "true",
            "name": "Masking Role Value Set Terminology",
            "preferredTerm": "CDISC DDF Masking Role Value Set Terminology",
            "submissionValue": "Masking Role Value Set Terminology",
            "synonyms":
            [
                "Masking Role Value Set Terminology"
            ],
            "terms":
            [
                {
                    "conceptId": "C17445",
                    "definition": "The primary person in charge of the care of a patient, usually a family member or a designated health care professional. (NCI)",
                    "preferredTerm": "Caregiver",
                    "submissionValue": "Care Provider",
                    "synonyms":
                    [
                        "Caregiver",
                        "Carer",
                        "Caretaker"
                    ]
                },
                {
                    "conceptId": "C25936",
                    "definition": "A person responsible for the conduct of the study, ensuring adherence to the protocol and good clinical practices. (CDISC Glossary)",
                    "preferredTerm": "Investigator",
                    "submissionValue": "Investigator"
                },
                {
                    "conceptId": "C207599",
                    "definition": "The individual who evaluates the outcome(s) of interest. (Clinicaltrials.gov)",
                    "preferredTerm": "Outcomes Assessor",
                    "submissionValue": "Outcomes Assessor"
                },
                {
                    "conceptId": "C70793",
                    "definition": "An individual, company, institution, or organization that takes responsibility for the initiation, management, and/or financing of a clinical study. [After ICH E6, WHO, 21 CFR 50.3 (e), and after IDMP]",
                    "preferredTerm": "Clinical Study Sponsor",
                    "submissionValue": "Sponsor",
                    "synonyms":
                    [
                        "Clinical Study Sponsor",
                        "Sponsor",
                        "Study Sponsor"
                    ]
                },
                {
                    "conceptId": "C41189",
                    "definition": "An individual who is observed, analyzed, examined, investigated, experimented upon, or/and treated in the course of a particular study.",
                    "preferredTerm": "Study Subject",
                    "submissionValue": "Study Subject"
                }
            ]
        },
        {
            "conceptId": "C188725",
            "definition": "The terminology relevant to the objective level.",
            "extensible": "false",
            "name": "Objective Level Value Set Terminology",
            "preferredTerm": "CDISC DDF Objective Level Value Set Terminology",
            "submissionValue": "Objective Level Value Set Terminology",
            "synonyms":
            [
                "Objective Level Value Set Terminology"
            ],
            "terms":
            [
                {
                    "conceptId": "C163559",
                    "definition": "Additional scientific question(s) within the study that enable further discovery research, beyond the primary and secondary objectives.",
                    "preferredTerm": "Trial Exploratory Objective",
                    "submissionValue": "Exploratory Objective",
                    "synonyms":
                    [
                        "Study Exploratory Objective",
                        "Trial Exploratory Objective"
                    ]
                },
                {
                    "conceptId": "C85826",
                    "definition": "The main scientific question(s) the study is designed to answer. (CDISC Glossary)",
                    "preferredTerm": "Trial Primary Objective",
                    "submissionValue": "Study Primary Objective",
                    "synonyms":
                    [
                        "Study Primary Objective",
                        "Trial Primary Objective"
                    ]
                },
                {
                    "conceptId": "C85827",
                    "definition": "The supportive or ancillary scientific question(s) the study is designed to answer. (CDISC Glossary)",
                    "preferredTerm": "Trial Secondary Objective",
                    "submissionValue": "Study Secondary Objective",
                    "synonyms":
                    [
                        "Study Secondary Objective",
                        "Trial Secondary Objective"
                    ]
                }
            ]
        },
        {
            "conceptId": "C188724",
            "definition": "The terminology relevant to the organization type.",
            "extensible": "true",
            "name": "Organization Type Value Set Terminology",
            "preferredTerm": "CDISC DDF Organization Type Value Set Terminology",
            "submissionValue": "Organization Type Value Set Terminology",
            "synonyms":
            [
                "Organization Type Value Set Terminology"
            ],
            "terms":
            [
                {
                    "conceptId": "C93453",
                    "definition": "An organization (typically a government agency) that administers the registration of studies. (BRIDG)",
                    "preferredTerm": "Study Registry",
                    "submissionValue": "Clinical Study Registry"
                },
                {
                    "conceptId": "C70793",
                    "definition": "An individual, company, institution, or organization that takes responsibility for the initiation, management, and/or financing of a clinical study. [After ICH E6, WHO, 21 CFR 50.3 (e), and after IDMP]",
                    "preferredTerm": "Clinical Study Sponsor",
                    "submissionValue": "Clinical Study Sponsor",
                    "synonyms":
                    [
                        "Clinical Study Sponsor",
                        "Sponsor",
                        "Study Sponsor"
                    ]
                },
                {
                    "conceptId": "C188863",
                    "definition": "An organization (typically a government agency) that is responsible for implementing and enforcing laws, licensing and regulating products and services, promoting the use of standards, and ensuring safety and consumer protections.",
                    "preferredTerm": "Regulatory Agency",
                    "submissionValue": "Regulatory Agency",
                    "synonyms":
                    [
                        "Regulator",
                        "Regulatory Body"
                    ]
                }
            ]
        },
        {
            "conceptId": "C188723",
            "definition": "The terminology relevant to the protocol status.",
            "extensible": "false",
            "name": "Protocol Status Value Set Terminology",
            "preferredTerm": "CDISC DDF Protocol Status Value Set Terminology",
            "submissionValue": "Protocol Status Value Set Terminology",
            "synonyms":
            [
                "Protocol Status Value Set Terminology"
            ],
            "terms":
            [
                {
                    "conceptId": "C25425",
                    "definition": "Acceptance as satisfactory by an authoritative body; established by authority; given authoritative approval.",
                    "preferredTerm": "Approval",
                    "submissionValue": "Approved"
                },
                {
                    "conceptId": "C85255",
                    "definition": "A preliminary version of a written work, design, or picture.",
                    "preferredTerm": "Draft",
                    "submissionValue": "Draft"
                },
                {
                    "conceptId": "C25508",
                    "definition": "Conclusive in a process or progression.",
                    "preferredTerm": "Final",
                    "submissionValue": "Final"
                },
                {
                    "conceptId": "C63553",
                    "definition": "No longer in use or valid; old.",
                    "preferredTerm": "Obsolete",
                    "submissionValue": "Obsolete"
                },
                {
                    "conceptId": "C188862",
                    "definition": "A preliminary version of a written work, design, or picture that is awaiting review.",
                    "preferredTerm": "Pending Review",
                    "submissionValue": "Pending Review",
                    "synonyms":
                    [
                        "Draft Pending Review"
                    ]
                }
            ]
        },
        {
            "conceptId": "C207415",
            "definition": "The terminology relevant to the study amendment reason code value set.",
            "extensible": "false",
            "name": "Study Amendment Reason Code Value Set Terminology",
            "preferredTerm": "CDISC DDF Study Amendment Reason Code Value Set Terminology",
            "submissionValue": "Study Amendment Reason Code Value Set Terminology",
            "synonyms":
            [
                "Study Amendment Reason Code Value Set Terminology"
            ],
            "terms":
            [
                {
                    "conceptId": "C207600",
                    "definition": "A change in the standard of care necessitates a change(s) to, or formal clarification of, the protocol. (ICH M11)",
                    "preferredTerm": "Change In Standard Of Care",
                    "submissionValue": "Change In Standard Of Care"
                },
                {
                    "conceptId": "C207601",
                    "definition": "A change in the study purpose or intent of the scientific plan necessitates a change(s) to, or formal clarification of, the protocol. (ICH M11)",
                    "preferredTerm": "Change In Strategy",
                    "submissionValue": "Change In Strategy"
                },
                {
                    "conceptId": "C207602",
                    "definition": "The addition of an investigational medicinal product to a clinical trial design necessitates a change(s) to, or formal clarification of, the protocol. (ICH M11)",
                    "preferredTerm": "IMP Addition",
                    "submissionValue": "IMP Addition"
                },
                {
                    "conceptId": "C207603",
                    "definition": "An error or inconsistency in the protocol necessitates a change(s) to, or formal clarification of, the protocol. (ICH M11)",
                    "preferredTerm": "Inconsistency and/or Error In The Protocol",
                    "submissionValue": "Inconsistency And/or Error In The Protocol"
                },
                {
                    "conceptId": "C207604",
                    "definition": "Feedback from the investigator or study site necessitates a change(s) to, or formal clarification of, the protocol. (ICH M11)",
                    "preferredTerm": "Investigator/Site Feedback",
                    "submissionValue": "Investigator/Site Feedback"
                },
                {
                    "conceptId": "C207605",
                    "definition": "Feedback from the institutional review board or independent ethics committee necessitates a change(s) to, or formal clarification of, the protocol. (ICH M11)",
                    "preferredTerm": "IRB/IEC Feedback",
                    "submissionValue": "IRB/IEC Feedback"
                },
                {
                    "conceptId": "C207606",
                    "definition": "A change to manufacturing processes of the study agents necessitates a change(s) to, or formal clarification of, the protocol. (ICH M11)",
                    "preferredTerm": "Manufacturing Change",
                    "submissionValue": "Manufacturing Change"
                },
                {
                    "conceptId": "C207607",
                    "definition": "Previously unavailable data (other than safety data) becomes available, which necessitates a change(s) to, or formal clarification of, the protocol. (ICH M11)",
                    "preferredTerm": "New Data Available (Other Than Safety Data)",
                    "submissionValue": "New Data Available (Other Than Safety Data)"
                },
                {
                    "conceptId": "C207608",
                    "definition": "A regulatory agency has published a guidance document that necessitates a change(s) to, or formal clarification of, the protocol. (ICH M11)",
                    "preferredTerm": "New Regulatory Guidance",
                    "submissionValue": "New Regulatory Guidance"
                },
                {
                    "conceptId": "C207609",
                    "definition": "Previously unavailable safety data becomes available, which necessitates a change(s) to, or formal clarification of, the protocol. (ICH M11)",
                    "preferredTerm": "New Safety Information Available",
                    "submissionValue": "New Safety Information Available"
                },
                {
                    "conceptId": "C207610",
                    "definition": "A protocol design error necessitates a change(s) to, or formal clarification of, a document. (ICH M11)",
                    "preferredTerm": "Protocol Design Error",
                    "submissionValue": "Protocol Design Error"
                },
                {
                    "conceptId": "C207611",
                    "definition": "Challenges with participant recruitment necessitates a change(s) to, or formal clarification of, the protocol. (ICH M11)",
                    "preferredTerm": "Recruitment Difficulty",
                    "submissionValue": "Recruitment Difficulty"
                },
                {
                    "conceptId": "C207612",
                    "definition": "A regulatory agency has expressed a need for a change(s) to, or formal clarification of, the protocol. (ICH M11)",
                    "preferredTerm": "Regulatory Agency Request To Amend",
                    "submissionValue": "Regulatory Agency Request To Amend"
                }
            ]
        },
        {
            "conceptId": "C188727",
            "definition": "The terminology relevant to the study arm data origin type.",
            "extensible": "true",
            "name": "Study Arm Data Origin Type Value Set Terminology",
            "preferredTerm": "CDISC DDF Study Arm Data Origin Type Value Set Terminology",
            "submissionValue": "Study Arm Data Origin Type Value Set Terminology",
            "synonyms":
            [
                "Study Arm Data Origin Type Value Set Terminology"
            ],
            "terms":
            [
                {
                    "conceptId": "C188866",
                    "definition": "Data that are generated from the current study.",
                    "preferredTerm": "Data Generated Within Study",
                    "submissionValue": "Data Generated Within Study"
                },
                {
                    "conceptId": "C188864",
                    "definition": "Data from studies that have occurred in the past.",
                    "preferredTerm": "Historical Data",
                    "submissionValue": "Historical Data"
                },
                {
                    "conceptId": "C165830",
                    "definition": "Data relating to patient health status and/or the delivery of health care routinely collected from sources other than traditional clinical trials. NOTE: Examples of sources include data derived from electronic health records (EHRs); medical claims and billing data; data from product and disease registries; patient-generated data, including from in-home-use settings; and data gathered from other sources that can inform on health status, such as mobile devices. [After 21 U.S.C. 355g(b)).5 and Framework for FDA's Real-World Evidence Program December 2018] See also Real-World Evidence (RWE)",
                    "preferredTerm": "Real-world Data",
                    "submissionValue": "Real World Data"
                },
                {
                    "conceptId": "C176263",
                    "definition": "Data that are artificially created rather than being generated by actual events. NOTE: Data are often created with the help of algorithms and used for a wide range of activities, including as test data for new products and tools, for model validation, and in AI optimization. [After The Ultimate Guide to Synthetic Data in 2020, August 29, 2020]. See also artificial intelligence.",
                    "preferredTerm": "Synthetic Data",
                    "submissionValue": "Synthetic Data"
                },
                {
                    "conceptId": "C188865",
                    "definition": "Data that are generated from virtual encounters between investigators and subjects.",
                    "preferredTerm": "Virtual Data",
                    "submissionValue": "Virtual Data"
                }
            ]
        },
        {
            "conceptId": "C207416",
            "definition": "The terminology relevant to the study design characteristics value set.",
            "extensible": "true",
            "name": "Study Design Characteristics Value Set Terminology",
            "preferredTerm": "CDISC DDF Study Design Characteristics Value Set Terminology",
            "submissionValue": "Study Design Characteristics Value Set Terminology",
            "synonyms":
            [
                "Study Design Characteristics Value Set Terminology"
            ],
            "terms":
            [
                {
                    "conceptId": "C98704",
                    "definition": "A study design that allows for prospectively planned modifications to one or more aspects of the design based on accumulating data from subjects in the trial. (FDA)",
                    "preferredTerm": "Adaptive Design",
                    "submissionValue": "Adaptive"
                },
                {
                    "conceptId": "C207613",
                    "definition": "A study design in which subjects enrolled in one study are subsequently continued into a related study for longer term safety, tolerability, and/or effectiveness monitoring.",
                    "preferredTerm": "Extension Study Design",
                    "submissionValue": "Extension",
                    "synonyms":
                    [
                        "Roll-over Study"
                    ]
                },
                {
                    "conceptId": "C46079",
                    "definition": "A study design in which interventions are assigned to subjects according to randomization principles.",
                    "preferredTerm": "Randomized Controlled Clinical Trial",
                    "submissionValue": "Randomized"
                }
            ]
        },
        {
            "conceptId": "C207418",
            "definition": "The terminology relevant to the study intervention product designation value set.",
            "extensible": "false",
            "name": "Study Intervention Product Designation Value Set Terminology",
            "preferredTerm": "CDISC DDF Study Intervention Product Designation Value Set Terminology",
            "submissionValue": "Study Intervention Product Designation Value Set Terminology",
            "synonyms":
            [
                "Study Intervention Product Designation Value Set Terminology"
            ],
            "terms":
            [
                {
                    "conceptId": "C202579",
                    "definition": "A medicinal product which is being tested or used as a reference, including as a placebo, in a clinical trial. (Regulation (EU) No 536/2014 Article 2 (5))",
                    "preferredTerm": "Investigational Medicinal Product",
                    "submissionValue": "IMP"
                },
                {
                    "conceptId": "C156473",
                    "definition": "A medicinal product that is related to the specific needs of the clinical trial as described in the protocol, but not as an investigational medicinal product. NOTE: Auxiliary medicinal products may be authorised for marketing in a country or region or non-authorised. (CDISC Glossary)",
                    "preferredTerm": "Auxiliary Medicinal Product",
                    "submissionValue": "NIMP (AxMP)"
                }
            ]
        },
        {
            "conceptId": "C207417",
            "definition": "The terminology relevant to the study intervention role value set.",
            "extensible": "false",
            "name": "Study Intervention Role Value Set Terminology",
            "preferredTerm": "CDISC DDF Study Intervention Role Value Set Terminology",
            "submissionValue": "Study Intervention Role Value Set Terminology",
            "synonyms":
            [
                "Study Intervention Role Value Set Terminology"
            ],
            "terms":
            [
                {
                    "conceptId": "C207614",
                    "definition": "A medicinal product that must be administered along with the experimental treatment (e.g., drug studies wherein opioid blockers are administered to prevent overdose).",
                    "preferredTerm": "Additional Required Medicinal Product",
                    "submissionValue": "Additional Required Treatment"
                },
                {
                    "conceptId": "C165822",
                    "definition": "Medicinal products that are administered to each clinical trial subject, regardless of randomization group, a) to treat the indication which is the object of the study, or b) required in the protocol as part of standard care for a condition that is not the indication under investigation, and is relevant for the clinical trial design. [After Recommendations from the expert group on clinical trials for the implementation of Regulation (EU) No 536/2014' dd 28 June 2017]",
                    "preferredTerm": "Background Treatment",
                    "submissionValue": "Background Treatment"
                },
                {
                    "conceptId": "C158128",
                    "definition": "A non-investigational medicinal product (NIMP) given to trial subjects to produce a physiological response that is necessary before the pharmacological action of the investigational medicinal product can be assessed. [After Recommendations from the expert group on clinical trials for the implementation of Regulation (EU) No 536/2014' dd 28 June 2017]",
                    "preferredTerm": "Challenge Agent",
                    "submissionValue": "Challenge Agent"
                },
                {
                    "conceptId": "C18020",
                    "definition": "Any procedure or test used to diagnose a disease or disorder.",
                    "preferredTerm": "Diagnostic Procedure",
                    "submissionValue": "Diagnostic"
                },
                {
                    "conceptId": "C41161",
                    "definition": "The drug, device, therapy, procedure, or process under investigation in a clinical study that is believed to have an effect on outcomes of interest in a study (e.g., health-related quality of life, efficacy, safety, pharmacoeconomics). [After https://grants.nih.gov/grants/policy/faq_clinical_trial_definition.htm#5224; https://grants.nih.gov/policy/clinical-trials/protocol-template.htm] See also test articles, devices, drug product, combination product, treatment, diagnosis. Contrast with investigational medicinal product.",
                    "preferredTerm": "Protocol Agent",
                    "submissionValue": "Experimental Intervention",
                    "synonyms":
                    [
                        "Investigational Interventional",
                        "Investigational Therapy or Treatment"
                    ]
                },
                {
                    "conceptId": "C753",
                    "definition": "A pharmaceutical preparation that does not contain the investigational agent and is generally prepared to be physically indistinguishable from the preparation containing the investigational product.",
                    "preferredTerm": "Placebo",
                    "submissionValue": "Placebo"
                },
                {
                    "conceptId": "C165835",
                    "definition": "Medicinal products identified in the protocol as those that may be administered to subjects when the efficacy of the investigational medicinal product (IMP) is not satisfactory, the effect of the IMP is too great and is likely to cause a hazard to the patient, or to manage an emergency situation. [After EU-CTR Recommendations from the expert group on clinical trials for the implementation of Regulation (EU) No 536/2014' dd 28 June 2017]",
                    "preferredTerm": "Rescue Medications",
                    "submissionValue": "Rescue Medicine"
                }
            ]
        },
        {
            "conceptId": "C207419",
            "definition": "The terminology relevant to the study title type value set.",
            "extensible": "false",
            "name": "Study Title Type Value Set Terminology",
            "preferredTerm": "CDISC DDF Study Title Type Value Set Terminology",
            "submissionValue": "Study Title Type Value Set Terminology",
            "synonyms":
            [
                "Study Title Type Value Set Terminology"
            ],
            "terms":
            [
                {
                    "conceptId": "C207615",
                    "definition": "The short descriptive name for the study.",
                    "preferredTerm": "Brief Study Title",
                    "submissionValue": "Brief Study Title",
                    "synonyms":
                    [
                        "Abbreviated Protocol Title"
                    ]
                },
                {
                    "conceptId": "C207616",
                    "definition": "The formal descriptive name for the study.",
                    "preferredTerm": "Official Study Title",
                    "submissionValue": "Official Study Title"
                },
                {
                    "conceptId": "C207617",
                    "definition": "The descriptive name of the study that is intended for the lay public, written in easily understood language.",
                    "preferredTerm": "Public Study Title",
                    "submissionValue": "Public Study Title"
                },
                {
                    "conceptId": "C207618",
                    "definition": "A more extensive descriptive name of the study that is intended for medical professionals, written using medical and scientific language.",
                    "preferredTerm": "Scientific Study Title",
                    "submissionValue": "Scientific Study Title"
                },
                {
                    "conceptId": "C207646",
                    "definition": "A word or words formed from the beginning letters or a combination of syllables and letters of a compound term, which identifies a clinical study.",
                    "preferredTerm": "Study Acronym",
                    "submissionValue": "Study Acronym",
                    "synonyms":
                    [
                        "Trial Acronym"
                    ]
                }
            ]
        },
        {
            "conceptId": "C201265",
            "definition": "The terminology relevant to the timing relative to from value set.",
            "extensible": "false",
            "name": "Timing Relative To From Value Set Terminology",
            "preferredTerm": "CDISC DDF Timing Relative To From Value Set Terminology",
            "submissionValue": "Timing Relative To From Value Set Terminology",
            "synonyms":
            [
                "Timing Relative To From Value Set Terminology"
            ],
            "terms":
            [
                {
                    "conceptId": "C201352",
                    "definition": "A timing relationship defined as the end of one event to the end of another event.",
                    "preferredTerm": "End to End",
                    "submissionValue": "End to End"
                },
                {
                    "conceptId": "C201353",
                    "definition": "A timing relationship defined as the end of one event to the start of another event.",
                    "preferredTerm": "End to Start",
                    "submissionValue": "End to Start"
                },
                {
                    "conceptId": "C201354",
                    "definition": "A timing relationship defined as the start of one event to the end of another event.",
                    "preferredTerm": "Start to End",
                    "submissionValue": "Start to End"
                },
                {
                    "conceptId": "C201355",
                    "definition": "A timing relationship defined as the start of one event to the start of another event.",
                    "preferredTerm": "Start to Start",
                    "submissionValue": "Start to Start"
                }
            ]
        },
        {
            "conceptId": "C201264",
            "definition": "The terminology relevant to the timing type value set.",
            "extensible": "false",
            "name": "Timing Type Value Set Terminology",
            "preferredTerm": "CDISC DDF Timing Type Value Set Terminology",
            "submissionValue": "Timing Type Value Set Terminology",
            "synonyms":
            [
                "Timing Type Value Set Terminology"
            ],
            "terms":
            [
                {
                    "conceptId": "C201356",
                    "definition": "A type of time point relationship that follows a point or period of time within a timeline.",
                    "preferredTerm": "After Timing Type",
                    "submissionValue": "After"
                },
                {
                    "conceptId": "C201357",
                    "definition": "A type of time point relationship that comes before a point or period of time within a timeline.",
                    "preferredTerm": "Before Timing Type",
                    "submissionValue": "Before"
                },
                {
                    "conceptId": "C201358",
                    "definition": "A type of time point relationship that is fixed with respect to a timeline.",
                    "preferredTerm": "Fixed Reference Timing Type",
                    "submissionValue": "Fixed Reference"
                }
            ]
        }
    ],
    "description": "CDISC Controlled Terminology for DDF is the set of CDISC-developed or CDISC-adopted standard expressions (values) used with data items within CDISC-defined DDF datasets.",
    "effectiveDate": "2024-09-27",
    "label": "DDF Controlled Terminology Package 58 Effective 2024-09-27",
    "name": "DDF CT 2024-09-27",
    "registrationStatus": "Final",
    "source": "DDF Controlled Terminology developed by the CDISC Terminology Team in collaboration with the National Cancer Institute's Enterprise Vocabulary Services (EVS)",
    "version": "2024-09-27"
}